subject,day,session_name,target_label,n_trials,accuracy,rt_mean_sec,rt_median_sec,rt_from_stimulus_mean_sec,rt_from_stimulus_median_sec,n_errors,session_order
s01,2026-05-28,basic_consonants,ㄱ,2,1.0,0.7238857499905862,0.7238857499905862,0.5738857499905862,0.5738857499905862,0,1
s01,2026-05-28,basic_consonants,ㄴ,2,1.0,0.7826980500249192,0.7826980500249192,0.6326980500249192,0.6326980500249192,0,1
s01,2026-05-28,basic_consonants,ㄷ,2,1.0,0.8141846000216901,0.8141846000216901,0.6641846000216901,0.6641846000216901,0,1
s01,2026-05-28,basic_consonants,ㅂ,2,1.0,0.9677976499660872,0.9677976499660872,0.8177976499660872,0.8177976499660872,0,1
s01,2026-05-28,basic_consonants,ㅅ,2,1.0,1.383775099995546,1.383775099995546,1.2337750999955461,1.2337750999955461,0,1
s01,2026-05-28,basic_consonants,ㅇ,2,1.0,0.8285206000437029,0.8285206000437029,0.6785206000437028,0.6785206000437028,0,1
s01,2026-05-28,basic_consonants,ㅈ,2,1.0,0.7781367499846965,0.7781367499846965,0.6281367499846965,0.6281367499846965,0,1
s01,2026-05-28,long_consonants,ㄹ,2,1.0,1.1731317999656312,1.1731317999656312,0.8231317999656311,0.8231317999656311,0,2
s01,2026-05-28,long_consonants,ㅁ,2,1.0,1.3229576000012457,1.3229576000012457,0.9729576000012456,0.9729576000012456,0,2
s01,2026-05-28,long_consonants,ㅊ,2,1.0,1.7592312999768183,1.7592312999768183,1.4092312999768182,1.4092312999768182,0,2
s01,2026-05-28,long_consonants,ㅋ,2,1.0,1.3684322500484996,1.3684322500484996,1.0184322500484995,1.0184322500484995,0,2
s01,2026-05-28,long_consonants,ㅌ,2,1.0,1.4148159000324085,1.4148159000324085,1.0648159000324084,1.0648159000324084,0,2
s01,2026-05-28,long_consonants,ㅍ,2,1.0,1.8038458000519313,1.8038458000519313,1.4538458000519312,1.4538458000519312,0,2
s01,2026-05-28,long_consonants,ㅎ,2,1.0,2.2388104499550536,2.2388104499550536,1.8888104499550535,1.8888104499550535,0,2
s01,2026-05-28,double_consonants,ㄲ,2,1.0,0.8601160999969579,0.8601160999969579,0.4098160999969579,0.4098160999969579,0,3
s01,2026-05-28,double_consonants,ㄸ,2,1.0,1.2482738500111736,1.2482738500111736,0.7981738500111737,0.7981738500111737,0,3
s01,2026-05-28,double_consonants,ㅃ,2,1.0,1.654973550059367,1.654973550059367,1.2043735500593669,1.2043735500593669,0,3
s01,2026-05-28,double_consonants,ㅆ,2,1.0,1.578459050040692,1.578459050040692,1.1280590500406922,1.1280590500406922,0,3
s01,2026-05-28,double_consonants,ㅉ,2,1.0,1.4441309999674559,1.4441309999674559,0.9934309999674559,0.9934309999674559,0,3
s01,2026-05-28,all_consonants,ㄱ,2,1.0,1.1732926500262693,1.1732926500262693,1.0232926500262693,1.0232926500262693,0,4
s01,2026-05-28,all_consonants,ㄲ,2,1.0,1.4166517999838106,1.4166517999838106,0.9663517999838107,0.9663517999838107,0,4
s01,2026-05-28,all_consonants,ㄴ,2,1.0,0.9154755499912426,0.9154755499912426,0.7654755499912426,0.7654755499912426,0,4
s01,2026-05-28,all_consonants,ㄷ,2,1.0,1.198919849935919,1.198919849935919,1.0489198499359191,1.0489198499359191,0,4
s01,2026-05-28,all_consonants,ㄸ,2,1.0,1.3706774999736808,1.3706774999736808,0.9205774999736809,0.9205774999736809,0,4
s01,2026-05-28,all_consonants,ㄹ,2,1.0,1.2773959999904037,1.2773959999904037,0.9273959999904036,0.9273959999904036,0,4
s01,2026-05-28,all_consonants,ㅁ,2,1.0,1.5190026499913074,1.5190026499913074,1.1690026499913073,1.1690026499913073,0,4
s01,2026-05-28,all_consonants,ㅂ,2,1.0,1.7557395500480197,1.7557395500480197,1.6057395500480198,1.6057395500480198,0,4
s01,2026-05-28,all_consonants,ㅃ,2,1.0,1.4073066000128165,1.4073066000128165,0.9567066000128166,0.9567066000128166,0,4
s01,2026-05-28,all_consonants,ㅅ,2,1.0,1.2369649500469677,1.2369649500469677,1.0869649500469678,1.0869649500469678,0,4
s01,2026-05-28,all_consonants,ㅆ,2,1.0,1.4373038999619894,1.4373038999619894,0.9869038999619895,0.9869038999619895,0,4
s01,2026-05-28,all_consonants,ㅇ,2,1.0,0.9744097999646328,0.9744097999646328,0.8244097999646328,0.8244097999646328,0,4
s01,2026-05-28,all_consonants,ㅈ,2,1.0,1.0911048000562005,1.0911048000562005,0.9411048000562006,0.9411048000562006,0,4
s01,2026-05-28,all_consonants,ㅉ,2,1.0,1.6859357000794262,1.6859357000794262,1.2352357000794263,1.2352357000794263,0,4
s01,2026-05-28,all_consonants,ㅊ,2,1.0,1.6306945499964058,1.6306945499964058,1.2806945499964058,1.2806945499964058,0,4
s01,2026-05-28,all_consonants,ㅋ,2,1.0,1.517809099983424,1.517809099983424,1.1678090999834239,1.1678090999834239,0,4
s01,2026-05-28,all_consonants,ㅌ,2,1.0,1.4030137499212287,1.4030137499212287,1.0530137499212286,1.0530137499212286,0,4
s01,2026-05-28,all_consonants,ㅍ,2,1.0,2.493951099982951,2.493951099982951,2.1439510999829507,2.1439510999829507,0,4
s01,2026-05-28,all_consonants,ㅎ,2,1.0,1.5859973499900661,1.5859973499900661,1.235997349990066,1.235997349990066,0,4
s01,2026-05-28,basic_vowels,ㅏ,2,1.0,1.0081988000310957,1.0081988000310957,0.6072988000310957,0.6072988000310957,0,5
s01,2026-05-28,basic_vowels,ㅓ,2,1.0,1.0827425500028767,1.0827425500028767,0.6816425500028767,0.6816425500028767,0,5
s01,2026-05-28,basic_vowels,ㅗ,2,1.0,1.3572809000615962,1.3572809000615962,0.9565809000615961,0.9565809000615961,0,5
s01,2026-05-28,basic_vowels,ㅜ,2,1.0,1.0133027500123717,1.0133027500123717,0.6120027500123717,0.6120027500123717,0,5
s01,2026-05-28,basic_vowels,ㅡ,2,1.0,1.2526090500177816,1.2526090500177816,0.9026090500177817,0.9026090500177817,0,5
s01,2026-05-28,basic_vowels,ㅣ,2,1.0,1.1667295000515878,1.1667295000515878,1.016729500051588,1.016729500051588,0,5
s01,2026-05-28,double_vowels,ㅑ,2,1.0,1.4572431999258697,1.4572431999258697,0.5049431999258698,0.5049431999258698,0,6
s01,2026-05-28,double_vowels,ㅕ,2,1.0,1.3137544499477372,1.3137544499477372,0.36105444994773717,0.36105444994773717,0,6
s01,2026-05-28,double_vowels,ㅛ,2,1.0,1.5238814000040293,1.5238814000040293,0.5719814000040292,0.5719814000040292,0,6
s01,2026-05-28,double_vowels,ㅠ,2,1.0,1.2412457999889739,1.2412457999889739,0.28814579998897394,0.28814579998897394,0,6
s01,2026-05-28,double_vowels,ㅢ,2,1.0,1.6593316999496892,1.6593316999496892,1.0088316999496891,1.0088316999496891,0,6
s01,2026-05-28,complex_vowels,ㅐ,2,1.0,3.6029792999615897,3.6029792999615897,2.9015792999615897,2.9015792999615897,0,7
s01,2026-05-28,complex_vowels,ㅒ,2,1.0,3.164628150057979,3.164628150057979,1.9118281500579792,1.9118281500579792,0,7
s01,2026-05-28,complex_vowels,ㅔ,2,1.0,3.049914999923203,3.049914999923203,2.348314999923203,2.348314999923203,0,7
s01,2026-05-28,complex_vowels,ㅖ,2,1.0,2.8475622000405565,2.8475622000405565,1.5943622000405564,1.5943622000405564,0,7
s01,2026-05-28,complex_vowels,ㅘ,2,1.0,2.225356600014493,2.225356600014493,1.2732566000144927,1.2732566000144927,0,7
s01,2026-05-28,complex_vowels,ㅚ,2,1.0,2.882100549992174,2.882100549992174,2.180900549992174,2.180900549992174,0,7
s01,2026-05-28,complex_vowels,ㅝ,2,1.0,3.878362250048667,3.878362250048667,2.9254622500486667,2.9254622500486667,0,7
s01,2026-05-28,complex_vowels,ㅟ,2,1.0,1.952811150054913,1.952811150054913,1.251011150054913,1.251011150054913,0,7
s01,2026-05-28,all_vowels,ㅏ,4,1.0,1.55584557497059,1.5539210999850184,1.15494557497059,1.1530210999850183,0,8
s01,2026-05-28,all_vowels,ㅐ,4,1.0,1.7252604250097647,1.730578150018118,1.0238604250097647,1.0291781500181183,0,8
s01,2026-05-28,all_vowels,ㅑ,4,1.0,1.6978203249746002,1.6986555999610573,0.7455203249746003,0.7463555999610574,0,8
s01,2026-05-28,all_vowels,ㅒ,3,1.0,2.166568633285351,2.042922099935822,0.9137686332853511,0.7901220999358223,0,8
s01,2026-05-28,all_vowels,ㅓ,4,1.0,1.6184329749667086,1.6132736999425106,1.2173329749667086,1.2121736999425106,0,8
s01,2026-05-28,all_vowels,ㅔ,3,0.6666666666666666,1.6707839332909014,1.7463907999917865,0.9691839332909012,1.0447907999917865,1,8
s01,2026-05-28,all_vowels,ㅕ,4,1.0,1.8096797999751288,1.7184959499863908,0.8569797999751289,0.7657959499863908,0,8
s01,2026-05-28,all_vowels,ㅖ,4,1.0,2.0324362750397995,2.0471357000642456,0.7792362750397994,0.7939357000642455,0,8
s01,2026-05-28,all_vowels,ㅗ,3,1.0,1.2347456332839404,1.29388619994279,0.8340456332839404,0.8931861999427899,0,8
s01,2026-05-28,all_vowels,ㅘ,4,1.0,2.0279921499604825,1.9442062999587506,1.0758921499604823,0.9921062999587504,0,8
s01,2026-05-28,all_vowels,ㅚ,3,1.0,2.477502999982486,2.014037000015378,1.7763029999824862,1.312837000015378,0,8
s01,2026-05-28,all_vowels,ㅛ,4,1.0,1.6194008000020403,1.6275396500132047,0.6675008000020403,0.6756396500132046,0,8
s01,2026-05-28,all_vowels,ㅜ,4,1.0,1.2538816750166006,1.2726197500596754,0.8525816750166006,0.8713197500596754,0,8
s01,2026-05-28,all_vowels,ㅝ,4,1.0,2.615780524996808,2.73508790001506,1.662880524996808,1.78218790001506,0,8
s01,2026-05-28,all_vowels,ㅟ,4,1.0,1.914554799994221,1.995057150023058,1.212754799994221,1.293257150023058,0,8
s01,2026-05-28,all_vowels,ㅠ,3,1.0,1.602939600047345,1.5184610000578689,0.6498396000473451,0.5653610000578687,0,8
s01,2026-05-28,all_vowels,ㅡ,4,1.0,1.398056575038936,1.3560861000441946,1.048056575038936,1.0060861000441945,0,8
s01,2026-05-28,all_vowels,ㅢ,3,1.0,1.4996457666857168,1.3237240000162274,0.8491457666857167,0.6732240000162274,0,8
s01,2026-05-28,all_vowels,ㅣ,3,1.0,1.3426494667073712,1.336602900060825,1.1926494667073713,1.1866029000608251,0,8
s01,2026-05-28,syllable_top50,가,1,1.0,1.8504502000287173,1.8504502000287173,1.0490502000287174,1.0490502000287174,0,9
s01,2026-05-28,syllable_top50,개,1,1.0,2.996198699926026,2.996198699926026,1.894298699926026,1.894298699926026,0,9
s01,2026-05-28,syllable_top50,것,1,1.0,2.526939300005324,2.526939300005324,1.3249393000053242,1.3249393000053242,0,9
s01,2026-05-28,syllable_top50,경,1,1.0,4.167959299986251,4.167959299986251,2.4138592999862505,2.4138592999862505,0,9
s01,2026-05-28,syllable_top50,계,1,1.0,3.269036200013943,3.269036200013943,1.6153362000139433,1.6153362000139433,0,9
s01,2026-05-28,syllable_top50,고,1,1.0,1.7469922000309452,1.7469922000309452,0.9457922000309452,0.9457922000309452,0,9
s01,2026-05-28,syllable_top50,공,1,1.0,2.3060817000223324,2.3060817000223324,1.1039817000223322,1.1039817000223322,0,9
s01,2026-05-28,syllable_top50,관,1,1.0,4.268722699955106,4.268722699955106,2.5159226999551056,2.5159226999551056,0,9
s01,2026-05-28,syllable_top50,구,1,1.0,3.3833049000240862,3.3833049000240862,2.581504900024086,2.581504900024086,0,9
s01,2026-05-28,syllable_top50,국,1,1.0,2.200205400004052,2.200205400004052,0.9981054000040516,0.9981054000040516,0,9
s01,2026-05-28,syllable_top50,기,1,1.0,1.8305926999310032,1.8305926999310032,1.2800926999310032,1.2800926999310032,0,9
s01,2026-05-28,syllable_top50,나,1,1.0,2.3928749000187963,2.3928749000187963,1.5914749000187962,1.5914749000187962,0,9
s01,2026-05-28,syllable_top50,내,1,1.0,7.154809799976647,7.154809799976647,6.052909799976646,6.052909799976646,0,9
s01,2026-05-28,syllable_top50,대,1,1.0,4.513479799963534,4.513479799963534,3.4115797999635338,3.4115797999635338,0,9
s01,2026-05-28,syllable_top50,도,1,0.0,2.627752500004135,2.627752500004135,1.826552500004135,1.826552500004135,1,9
s01,2026-05-28,syllable_top50,동,1,1.0,2.4034631999675184,2.4034631999675184,1.2013631999675185,1.2013631999675185,0,9
s01,2026-05-28,syllable_top50,등,1,1.0,5.644729900057428,5.644729900057428,4.493329900057427,4.493329900057427,0,9
s01,2026-05-28,syllable_top50,리,1,1.0,4.810850600013509,4.810850600013509,4.06035060001351,4.06035060001351,0,9
s01,2026-05-28,syllable_top50,보,1,1.0,2.7985623000422493,2.7985623000422493,1.997362300042249,1.997362300042249,0,9
s01,2026-05-28,syllable_top50,부,1,1.0,2.3480134999845177,2.3480134999845177,1.5462134999845176,1.5462134999845176,0,9
s01,2026-05-28,syllable_top50,비,1,1.0,2.4546772999456152,2.4546772999456152,1.9041772999456152,1.9041772999456152,0,9
s01,2026-05-28,syllable_top50,사,1,1.0,1.6183509000111371,1.6183509000111371,0.8169509000111371,0.8169509000111371,0,9
s01,2026-05-28,syllable_top50,상,1,1.0,2.7929311000043526,2.7929311000043526,1.5906311000043527,1.5906311000043527,0,9
s01,2026-05-28,syllable_top50,서,1,1.0,1.9153587999753652,1.9153587999753652,1.1137587999753653,1.1137587999753653,0,9
s01,2026-05-28,syllable_top50,선,1,1.0,3.4251903999829665,3.4251903999829665,2.2233903999829665,2.2233903999829665,0,9
s01,2026-05-28,syllable_top50,성,1,1.0,3.814369599916972,3.814369599916972,2.6118695999169725,2.6118695999169725,0,9
s01,2026-05-28,syllable_top50,소,1,1.0,2.428752899984829,2.428752899984829,1.627552899984829,1.627552899984829,0,9
s01,2026-05-28,syllable_top50,수,1,1.0,2.059035299927928,2.059035299927928,1.2572352999279277,1.2572352999279277,0,9
s01,2026-05-28,syllable_top50,스,1,1.0,2.43332269997336,2.43332269997336,1.6828226999733598,1.6828226999733598,0,9
s01,2026-05-28,syllable_top50,시,1,1.0,1.9971968999598173,1.9971968999598173,1.4466968999598175,1.4466968999598175,0,9
s01,2026-05-28,syllable_top50,아,1,1.0,2.2634364999830723,2.2634364999830723,1.4620364999830722,1.4620364999830722,0,9
s01,2026-05-28,syllable_top50,업,1,1.0,5.34314610005822,5.34314610005822,4.140946100058221,4.140946100058221,0,9
s01,2026-05-28,syllable_top50,오,1,1.0,1.4084341999841854,1.4084341999841854,0.6072341999841854,0.6072341999841854,0,9
s01,2026-05-28,syllable_top50,원,1,1.0,2.9160179999889806,2.9160179999889806,1.1624179999889808,1.1624179999889808,0,9
s01,2026-05-28,syllable_top50,위,1,1.0,3.1533178000245243,3.1533178000245243,2.0510178000245243,2.0510178000245243,0,9
s01,2026-05-28,syllable_top50,의,1,1.0,3.101321000023745,3.101321000023745,2.050321000023745,2.050321000023745,0,9
s01,2026-05-28,syllable_top50,이,1,1.0,2.0805194000713527,2.0805194000713527,1.5300194000713527,1.5300194000713527,0,9
s01,2026-05-28,syllable_top50,인,1,1.0,3.0354669999796897,3.0354669999796897,2.0847669999796894,2.0847669999796894,0,9
s01,2026-05-28,syllable_top50,일,1,1.0,3.3715918000089005,3.3715918000089005,2.2208918000089004,2.2208918000089004,0,9
s01,2026-05-28,syllable_top50,있,1,1.0,5.544680299935862,5.544680299935862,4.293380299935863,4.293380299935863,0,9
s01,2026-05-28,syllable_top50,자,1,1.0,1.9449517000466583,1.9449517000466583,1.1435517000466584,1.1435517000466584,0,9
s01,2026-05-28,syllable_top50,장,1,1.0,4.036764199961908,4.036764199961908,2.834464199961908,2.834464199961908,0,9
s01,2026-05-28,syllable_top50,전,1,1.0,2.9569734999677166,2.9569734999677166,1.7551734999677169,1.7551734999677169,0,9
s01,2026-05-28,syllable_top50,정,1,1.0,2.589902200037613,2.589902200037613,1.3874022000376136,1.3874022000376136,0,9
s01,2026-05-28,syllable_top50,제,1,1.0,4.553526100004092,4.553526100004092,3.451426100004092,3.451426100004092,0,9
s01,2026-05-28,syllable_top50,주,1,1.0,2.032005300046876,2.032005300046876,1.230205300046876,1.230205300046876,0,9
s01,2026-05-28,syllable_top50,중,1,1.0,3.216284700087272,3.216284700087272,2.0135847000872715,2.0135847000872715,0,9
s01,2026-05-28,syllable_top50,지,1,1.0,2.497874399996362,2.497874399996362,1.9473743999963624,1.9473743999963624,0,9
s01,2026-05-28,syllable_top50,하,1,1.0,3.155959499999881,3.155959499999881,2.1545594999998805,2.1545594999998805,0,9
s01,2026-05-28,syllable_top50,회,1,0.0,4.933322100085206,4.933322100085206,3.631622100085206,3.631622100085206,1,9
s01,2026-06-02,basic_consonants,ㄱ,3,1.0,0.7352214665928235,0.7246784998569638,0.5852214665928234,0.5746784998569637,0,1
s01,2026-06-02,basic_consonants,ㄴ,4,1.0,0.793107575038448,0.7862169001018628,0.643107575038448,0.6362169001018628,0,1
s01,2026-06-02,basic_consonants,ㄷ,4,1.0,0.8224566499702632,0.8589764999924228,0.6724566499702632,0.7089764999924227,0,1
s01,2026-06-02,basic_consonants,ㅂ,4,0.75,1.7431594249792397,1.7292995499446988,1.5931594249792398,1.579299549944699,1,1
s01,2026-06-02,basic_consonants,ㅅ,4,1.0,1.1200158499996178,1.1516535499831662,0.9700158499996179,1.0016535499831662,0,1
s01,2026-06-02,basic_consonants,ㅇ,3,1.0,0.8333454000918815,0.7765842000953853,0.6833454000918815,0.6265842000953853,0,1
s01,2026-06-02,basic_consonants,ㅈ,4,1.0,1.1469931249739602,1.144442499964498,0.9969931249739602,0.9944424999644979,0,1
s01,2026-06-02,long_consonants,ㄹ,4,1.0,0.8545304749859497,0.8906112000113353,0.5045304749859497,0.5406112000113353,0,2
s01,2026-06-02,long_consonants,ㅁ,4,1.0,1.6130859749973752,1.3994717500172555,1.263085974997375,1.0494717500172555,0,2
s01,2026-06-02,long_consonants,ㅊ,4,1.0,1.1423033999162726,1.1552030999446288,0.7923033999162726,0.8052030999446288,0,2
s01,2026-06-02,long_consonants,ㅋ,4,0.75,1.010783924954012,1.0185077999485659,0.6607839249540121,0.6685077999485657,1,2
s01,2026-06-02,long_consonants,ㅌ,4,1.0,0.8487411999958567,0.8881843499839306,0.49874119999585675,0.5381843499839306,0,2
s01,2026-06-02,long_consonants,ㅍ,4,1.0,1.3935980750247836,1.3496470500249416,1.0435980750247835,0.9996470500249415,0,2
s01,2026-06-02,long_consonants,ㅎ,4,0.75,1.5439647249295376,1.3089402498444542,1.1939647249295375,0.9589402498444541,1,2
s01,2026-06-02,double_consonants,ㄲ,2,1.0,0.7935383499134332,0.7935383499134332,0.3432383499134331,0.3432383499134331,0,3
s01,2026-06-02,double_consonants,ㄸ,2,1.0,1.0914675999665633,1.0914675999665633,0.6413675999665633,0.6413675999665633,0,3
s01,2026-06-02,double_consonants,ㅃ,2,1.0,0.9338480500737205,0.9338480500737205,0.4832480500737205,0.4832480500737205,0,3
s01,2026-06-02,double_consonants,ㅆ,2,1.0,1.0688659999286756,1.0688659999286756,0.6184659999286757,0.6184659999286757,0,3
s01,2026-06-02,double_consonants,ㅉ,2,1.0,1.1181334999855608,1.1181334999855608,0.6674334999855608,0.6674334999855608,0,3
s01,2026-06-02,all_consonants,ㄱ,3,1.0,0.8844948000429819,0.9039251999929548,0.7344948000429818,0.7539251999929547,0,4
s01,2026-06-02,all_consonants,ㄲ,3,1.0,0.986923566631352,1.024243599968031,0.5366235666313518,0.573943599968031,0,4
s01,2026-06-02,all_consonants,ㄴ,3,1.0,1.0630770665593445,1.0241091998759655,0.9130770665593446,0.8741091998759657,0,4
s01,2026-06-02,all_consonants,ㄷ,2,1.0,0.9708023999119177,0.9708023999119177,0.8208023999119177,0.8208023999119177,0,4
s01,2026-06-02,all_consonants,ㄸ,3,1.0,1.055748700009038,1.0541725000366569,0.6056487000090381,0.6040725000366569,0,4
s01,2026-06-02,all_consonants,ㄹ,3,1.0,0.9589730999432503,0.937402999959886,0.6089730999432504,0.5874029999598861,0,4
s01,2026-06-02,all_consonants,ㅁ,3,1.0,1.3044496666795264,1.3848383999429643,0.9544496666795262,1.0348383999429642,0,4
s01,2026-06-02,all_consonants,ㅂ,3,1.0,1.266497166749711,1.3272179001942277,1.1164971667497108,1.1772179001942278,0,4
s01,2026-06-02,all_consonants,ㅃ,3,1.0,1.5762609999316435,1.2032359999138862,1.1256609999316434,0.7526359999138862,0,4
s01,2026-06-02,all_consonants,ㅅ,3,1.0,1.0464411666616797,1.0261319999117404,0.8964411666616797,0.8761319999117404,0,4
s01,2026-06-02,all_consonants,ㅆ,3,1.0,1.2187010665268947,1.1432711998932064,0.7683010665268949,0.6928711998932064,0,4
s01,2026-06-02,all_consonants,ㅇ,3,1.0,0.9707979667000473,0.9937462999951094,0.8207979667000472,0.8437462999951094,0,4
s01,2026-06-02,all_consonants,ㅈ,2,1.0,1.837301000021398,1.837301000021398,1.6873010000213982,1.6873010000213982,0,4
s01,2026-06-02,all_consonants,ㅉ,3,1.0,1.3543710666708648,1.23321589990519,0.9036710666708648,0.7825158999051899,0,4
s01,2026-06-02,all_consonants,ㅊ,3,1.0,1.7589517999440432,1.8191845999099316,1.4089517999440428,1.469184599909931,0,4
s01,2026-06-02,all_consonants,ㅋ,2,0.5,0.9778605499304831,0.9778605499304831,0.6278605499304831,0.6278605499304831,1,4
s01,2026-06-02,all_consonants,ㅌ,3,1.0,1.3039520999882368,1.3954235999844968,0.9539520999882369,1.0454235999844967,0,4
s01,2026-06-02,all_consonants,ㅍ,3,0.6666666666666666,1.9958979000026982,1.8705537000205368,1.6458979000026979,1.5205537000205367,1,4
s01,2026-06-02,all_consonants,ㅎ,3,1.0,1.818209800015514,1.7752909001428634,1.468209800015514,1.4252909001428633,0,4
s01,2026-06-02,basic_vowels,ㅏ,2,1.0,0.8705775999696925,0.8705775999696925,0.4696775999696925,0.4696775999696925,0,5
s01,2026-06-02,basic_vowels,ㅓ,2,1.0,1.0123325999593362,1.0123325999593362,0.6112325999593362,0.6112325999593362,0,5
s01,2026-06-02,basic_vowels,ㅗ,2,1.0,0.9589775500353426,0.9589775500353426,0.5582775500353425,0.5582775500353425,0,5
s01,2026-06-02,basic_vowels,ㅜ,2,1.0,0.9777711000060663,0.9777711000060663,0.5764711000060663,0.5764711000060663,0,5
s01,2026-06-02,basic_vowels,ㅡ,2,1.0,1.0737964001018554,1.0737964001018554,0.7237964001018554,0.7237964001018554,0,5
s01,2026-06-02,basic_vowels,ㅣ,2,1.0,2.6526025999337435,2.6526025999337435,2.5026025999337436,2.5026025999337436,0,5
s01,2026-06-02,double_vowels,ㅑ,2,1.0,1.3095361999003217,1.3095361999003217,0.35723619990032174,0.35723619990032174,0,6
s01,2026-06-02,double_vowels,ㅕ,2,1.0,1.2589317999081686,1.2589317999081686,0.3062317999081686,0.3062317999081686,0,6
s01,2026-06-02,double_vowels,ㅛ,2,1.0,1.3657452500192448,1.3657452500192448,0.41384525001924477,0.41384525001924477,0,6
s01,2026-06-02,double_vowels,ㅠ,2,1.0,1.4166284499224275,1.4166284499224275,0.4635284499224276,0.4635284499224276,0,6
s01,2026-06-02,double_vowels,ㅢ,2,1.0,1.5544552500359714,1.5544552500359714,0.9039552500359713,0.9039552500359713,0,6
s01,2026-06-02,complex_vowels,ㅐ,2,1.0,1.8768349000019953,1.8768349000019953,1.1754349000019952,1.1754349000019952,0,7
s01,2026-06-02,complex_vowels,ㅒ,2,1.0,1.9285122001310806,1.9285122001310806,0.6757122001310811,0.6757122001310811,0,7
s01,2026-06-02,complex_vowels,ㅔ,2,1.0,1.9544464000500739,1.9544464000500739,1.2528464000500739,1.2528464000500739,0,7
s01,2026-06-02,complex_vowels,ㅖ,2,1.0,2.0925578998867422,2.0925578998867422,0.8393578998867421,0.8393578998867421,0,7
s01,2026-06-02,complex_vowels,ㅘ,2,1.0,1.7630404999945313,1.7630404999945313,0.8109404999945311,0.8109404999945311,0,7
s01,2026-06-02,complex_vowels,ㅚ,2,1.0,2.359108000062406,2.359108000062406,1.657908000062406,1.657908000062406,0,7
s01,2026-06-02,complex_vowels,ㅝ,2,1.0,2.268366049975157,2.268366049975157,1.3154660499751567,1.3154660499751567,0,7
s01,2026-06-02,complex_vowels,ㅟ,2,1.0,1.5471941999858245,1.5471941999858245,0.8453941999858245,0.8453941999858245,0,7
s01,2026-06-02,all_vowels,ㅏ,4,1.0,1.076817600056529,1.0754047500668094,0.675917600056529,0.6745047500668093,0,8
s01,2026-06-02,all_vowels,ㅐ,4,0.75,1.5715191500494257,1.6757481000386178,0.8701191500494256,0.9743481000386178,1,8
s01,2026-06-02,all_vowels,ㅑ,4,1.0,1.5570378499105573,1.5351432499010116,0.6047378499105573,0.5828432499010117,0,8
s01,2026-06-02,all_vowels,ㅒ,4,0.75,1.9865586750092916,1.984851900022477,0.7337586750092917,0.732051900022477,1,8
s01,2026-06-02,all_vowels,ㅓ,4,1.0,1.2059705249848776,1.22006544994656,0.8048705249848775,0.81896544994656,0,8
s01,2026-06-02,all_vowels,ㅔ,4,0.75,1.2761397749418393,1.329141299938783,0.5745397749418393,0.627541299938783,1,8
s01,2026-06-02,all_vowels,ㅕ,4,0.75,1.6100462999893352,1.6090221999911591,0.6573462999893352,0.6563221999911591,1,8
s01,2026-06-02,all_vowels,ㅖ,4,1.0,1.9617817000253126,1.9540304000256583,0.7085817000253125,0.7008304000256582,0,8
s01,2026-06-02,all_vowels,ㅗ,4,1.0,1.0871459749760106,1.0750114999245852,0.6864459749760106,0.6743114999245852,0,8
s01,2026-06-02,all_vowels,ㅘ,4,1.0,1.7455572499893606,1.6104286999907345,0.7934572499893605,0.6583286999907344,0,8
s01,2026-06-02,all_vowels,ㅚ,4,1.0,1.7531646999996156,1.6843440500088036,1.0519646999996155,0.9831440500088036,0,8
s01,2026-06-02,all_vowels,ㅛ,4,1.0,1.5099068250274286,1.4708929000189528,0.5580068250274285,0.5189929000189527,0,8
s01,2026-06-02,all_vowels,ㅜ,4,1.0,1.2936750499648042,1.173324599978514,0.8923750499648042,0.772024599978514,0,8
s01,2026-06-02,all_vowels,ㅝ,4,1.0,1.7241601748974063,1.7294599999440834,0.7712601748974063,0.7765599999440834,0,8
s01,2026-06-02,all_vowels,ㅟ,4,1.0,1.5187288500601426,1.5966855001170188,0.8169288500601426,0.8948855001170188,0,8
s01,2026-06-02,all_vowels,ㅠ,4,1.0,1.5162308249855414,1.4966357998782769,0.5631308249855415,0.5435357998782769,0,8
s01,2026-06-02,all_vowels,ㅡ,4,1.0,1.3434029250056483,1.325714849983342,0.9934029250056483,0.975714849983342,0,8
s01,2026-06-02,all_vowels,ㅢ,4,1.0,1.3134538249578327,1.2726553499232978,0.6629538249578327,0.6221553499232978,0,8
s01,2026-06-02,all_vowels,ㅣ,4,1.0,1.0551458000554703,1.0273672000039369,0.9051458000554703,0.8773672000039369,0,8
s01,2026-06-02,syllable_top50,가,1,1.0,1.683086900040507,1.683086900040507,0.8816869000405073,0.8816869000405073,0,9
s01,2026-06-02,syllable_top50,개,1,0.0,1.805553400190547,1.805553400190547,0.703653400190547,0.703653400190547,1,9
s01,2026-06-02,syllable_top50,것,1,1.0,2.403227600036189,2.403227600036189,1.201227600036189,1.201227600036189,0,9
s01,2026-06-02,syllable_top50,경,1,1.0,1.3352089999243617,1.3352089999243617,0.0,0.0,0,9
s01,2026-06-02,syllable_top50,계,1,1.0,3.093699600081891,3.093699600081891,1.439999600081891,1.439999600081891,0,9
s01,2026-06-02,syllable_top50,고,1,1.0,1.970754300011322,1.970754300011322,1.1695543000113218,1.1695543000113218,0,9
s01,2026-06-02,syllable_top50,공,1,1.0,2.0020719999447465,2.0020719999447465,0.7999719999447463,0.7999719999447463,0,9
s01,2026-06-02,syllable_top50,관,1,1.0,4.05430019996129,4.05430019996129,2.3015001999612896,2.3015001999612896,0,9
s01,2026-06-02,syllable_top50,구,1,1.0,1.503603900084272,1.503603900084272,0.7018039000842721,0.7018039000842721,0,9
s01,2026-06-02,syllable_top50,국,1,1.0,2.1335218001622707,2.1335218001622707,0.9314218001622708,0.9314218001622708,0,9
s01,2026-06-02,syllable_top50,기,1,1.0,1.781338799977675,1.781338799977675,1.230838799977675,1.230838799977675,0,9
s01,2026-06-02,syllable_top50,나,1,1.0,1.9922480001114309,1.9922480001114309,1.1908480001114308,1.1908480001114308,0,9
s01,2026-06-02,syllable_top50,내,1,1.0,4.119906799867749,4.119906799867749,3.018006799867749,3.018006799867749,0,9
s01,2026-06-02,syllable_top50,대,1,1.0,3.2757098998408765,3.2757098998408765,2.1738098998408764,2.1738098998408764,0,9
s01,2026-06-02,syllable_top50,도,1,1.0,1.7951646998990327,1.7951646998990327,0.9939646998990328,0.9939646998990328,0,9
s01,2026-06-02,syllable_top50,동,1,1.0,1.9827320000622424,1.9827320000622424,0.780632000062242,0.780632000062242,0,9
s01,2026-06-02,syllable_top50,등,1,1.0,3.174374700058252,3.174374700058252,2.0229747000582514,2.0229747000582514,0,9
s01,2026-06-02,syllable_top50,리,1,1.0,2.0738995999563485,2.0738995999563485,1.3233995999563486,1.3233995999563486,0,9
s01,2026-06-02,syllable_top50,보,1,1.0,2.166062999982387,2.166062999982387,1.3648629999823867,1.3648629999823867,0,9
s01,2026-06-02,syllable_top50,부,1,0.0,1.7855150999967009,1.7855150999967009,0.9837150999967008,0.9837150999967008,1,9
s01,2026-06-02,syllable_top50,비,1,1.0,2.604756199987605,2.604756199987605,2.054256199987605,2.054256199987605,0,9
s01,2026-06-02,syllable_top50,사,1,1.0,1.5992472998332232,1.5992472998332232,0.7978472998332232,0.7978472998332232,0,9
s01,2026-06-02,syllable_top50,상,1,1.0,2.2006675999145955,2.2006675999145955,0.9983675999145956,0.9983675999145956,0,9
s01,2026-06-02,syllable_top50,서,1,1.0,2.2044331000652164,2.2044331000652164,1.4028331000652163,1.4028331000652163,0,9
s01,2026-06-02,syllable_top50,선,1,1.0,2.644117600051686,2.644117600051686,1.4423176000516862,1.4423176000516862,0,9
s01,2026-06-02,syllable_top50,성,1,1.0,2.339472600026056,2.339472600026056,1.1369726000260565,1.1369726000260565,0,9
s01,2026-06-02,syllable_top50,소,1,1.0,1.8032754000741988,1.8032754000741988,1.0020754000741987,1.0020754000741987,0,9
s01,2026-06-02,syllable_top50,수,1,1.0,1.9531153999269009,1.9531153999269009,1.1513153999269008,1.1513153999269008,0,9
s01,2026-06-02,syllable_top50,스,1,1.0,2.9434267999604344,2.9434267999604344,2.1929267999604347,2.1929267999604347,0,9
s01,2026-06-02,syllable_top50,시,1,1.0,2.4055401000659917,2.4055401000659917,1.8550401000659915,1.8550401000659915,0,9
s01,2026-06-02,syllable_top50,아,1,1.0,2.14451240003109,2.14451240003109,1.3431124000310897,1.3431124000310897,0,9
s01,2026-06-02,syllable_top50,업,1,1.0,3.794322200119496,3.794322200119496,2.5921222001194955,2.5921222001194955,0,9
s01,2026-06-02,syllable_top50,오,1,1.0,1.685869200155139,1.685869200155139,0.884669200155139,0.884669200155139,0,9
s01,2026-06-02,syllable_top50,원,1,1.0,2.853497200179845,2.853497200179845,1.0998972001798453,1.0998972001798453,0,9
s01,2026-06-02,syllable_top50,위,1,1.0,5.497315399814397,5.497315399814397,4.3950153998143975,4.3950153998143975,0,9
s01,2026-06-02,syllable_top50,의,1,1.0,2.72051510005258,2.72051510005258,1.6695151000525803,1.6695151000525803,0,9
s01,2026-06-02,syllable_top50,이,1,1.0,1.7441640000324696,1.7441640000324696,1.1936640000324696,1.1936640000324696,0,9
s01,2026-06-02,syllable_top50,인,1,1.0,2.193154999986291,2.193154999986291,1.2424549999862908,1.2424549999862908,0,9
s01,2026-06-02,syllable_top50,일,1,1.0,3.365037600044161,3.365037600044161,2.214337600044161,2.214337600044161,0,9
s01,2026-06-02,syllable_top50,있,1,1.0,3.2694320001173764,3.2694320001173764,2.018132000117377,2.018132000117377,0,9
s01,2026-06-02,syllable_top50,자,1,1.0,1.5943291999865323,1.5943291999865323,0.7929291999865323,0.7929291999865323,0,9
s01,2026-06-02,syllable_top50,장,1,1.0,3.4235556998755783,3.4235556998755783,2.221255699875578,2.221255699875578,0,9
s01,2026-06-02,syllable_top50,전,1,0.0,4.08148349984549,4.08148349984549,2.87968349984549,2.87968349984549,1,9
s01,2026-06-02,syllable_top50,정,1,1.0,3.085840200074017,3.085840200074017,1.8833402000740167,1.8833402000740167,0,9
s01,2026-06-02,syllable_top50,제,1,1.0,3.784561999840662,3.784561999840662,2.682461999840662,2.682461999840662,0,9
s01,2026-06-02,syllable_top50,주,1,1.0,2.2244116000365466,2.2244116000365466,1.4226116000365463,1.4226116000365463,0,9
s01,2026-06-02,syllable_top50,중,1,1.0,2.7732830999884754,2.7732830999884754,1.5705830999884751,1.5705830999884751,0,9
s01,2026-06-02,syllable_top50,지,1,1.0,1.4454202998895198,1.4454202998895198,0.8949202998895198,0.8949202998895198,0,9
s01,2026-06-02,syllable_top50,하,1,1.0,3.1338029000908136,3.1338029000908136,2.1324029000908133,2.1324029000908133,0,9
s01,2026-06-02,syllable_top50,회,1,1.0,6.431047699879855,6.431047699879855,5.129347699879855,5.129347699879855,0,9
s01,2026-06-02,syllable_top100,감,1,1.0,3.041827999986708,3.041827999986708,1.6395279999867085,1.6395279999867085,0,10
s01,2026-06-02,syllable_top100,거,1,0.0,1.7754948001820594,1.7754948001820594,0.9738948001820594,0.9738948001820594,1,10
s01,2026-06-02,syllable_top100,것,1,1.0,3.532029499998316,3.532029499998316,2.330029499998316,2.330029499998316,0,10
s01,2026-06-02,syllable_top100,계,1,1.0,2.585234500002116,2.585234500002116,0.9315345000021162,0.9315345000021162,0,10
s01,2026-06-02,syllable_top100,공,1,1.0,2.523301800014451,2.523301800014451,1.321201800014451,1.321201800014451,0,10
s01,2026-06-02,syllable_top100,내,1,1.0,3.6358052999712527,3.6358052999712527,2.5339052999712526,2.5339052999712526,0,10
s01,2026-06-02,syllable_top100,년,1,0.0,3.991188099840656,3.991188099840656,2.237788099840656,2.237788099840656,1,10
s01,2026-06-02,syllable_top100,대,1,0.0,3.394328200025484,3.394328200025484,2.292428200025484,2.292428200025484,1,10
s01,2026-06-02,syllable_top100,등,1,1.0,3.214246300049126,3.214246300049126,2.062846300049126,2.062846300049126,0,10
s01,2026-06-02,syllable_top100,명,1,1.0,4.294798300135881,4.294798300135881,2.3406983001358808,2.3406983001358808,0,10
s01,2026-06-02,syllable_top100,사,1,1.0,1.2603123001754284,1.2603123001754284,0.4589123001754284,0.4589123001754284,0,10
s01,2026-06-02,syllable_top100,산,1,1.0,1.2384935000445694,1.2384935000445694,0.0368935000445693,0.0368935000445693,0,10
s01,2026-06-02,syllable_top100,상,1,1.0,1.8557414000388237,1.8557414000388237,0.6534414000388236,0.6534414000388236,0,10
s01,2026-06-02,syllable_top100,성,1,1.0,2.135453099850565,2.135453099850565,0.9329530998505652,0.9329530998505652,0,10
s01,2026-06-02,syllable_top100,세,1,0.0,2.0386741999536757,2.0386741999536757,0.9365741999536754,0.9365741999536754,1,10
s01,2026-06-02,syllable_top100,신,1,0.0,3.9971121000126,3.9971121000126,3.0464121000126,3.0464121000126,1,10
s01,2026-06-02,syllable_top100,아,1,1.0,1.6014984999783335,1.6014984999783335,0.8000984999783337,0.8000984999783337,0,10
s01,2026-06-02,syllable_top100,연,1,1.0,1.38398059993051,1.38398059993051,0.0,0.0,0,10
s01,2026-06-02,syllable_top100,영,1,0.0,3.934887700015679,3.934887700015679,2.180787700015679,2.180787700015679,1,10
s01,2026-06-02,syllable_top100,오,1,1.0,2.1467741997912526,2.1467741997912526,1.3455741997912525,1.3455741997912525,0,10
s01,2026-06-02,syllable_top100,우,1,1.0,1.4843999999575317,1.4843999999575317,0.6825999999575317,0.6825999999575317,0,10
s01,2026-06-02,syllable_top100,유,1,1.0,2.071170600131154,2.071170600131154,0.7175706001311541,0.7175706001311541,0,10
s01,2026-06-02,syllable_top100,이,1,0.0,1.9472918000537904,1.9472918000537904,1.3967918000537902,1.3967918000537902,1,10
s01,2026-06-02,syllable_top100,인,1,1.0,1.9915058999322357,1.9915058999322357,1.0408058999322354,1.0408058999322354,0,10
s01,2026-06-02,syllable_top100,자,1,1.0,1.781736700097099,1.781736700097099,0.980336700097099,0.980336700097099,0,10
s01,2026-06-02,syllable_top100,장,1,1.0,2.404389299917966,2.404389299917966,1.2020892999179662,1.2020892999179662,0,10
s01,2026-06-02,syllable_top100,전,1,1.0,2.2836187998764217,2.2836187998764217,1.0818187998764217,1.0818187998764217,0,10
s01,2026-06-02,syllable_top100,제,1,1.0,3.141937999986112,3.141937999986112,2.039837999986112,2.039837999986112,0,10
s01,2026-06-02,syllable_top100,지,1,1.0,2.4613119000568986,2.4613119000568986,1.9108119000568984,1.9108119000568984,0,10
s01,2026-06-02,syllable_top100,치,1,1.0,2.64704760001041,2.64704760001041,1.89654760001041,1.89654760001041,0,10
s01,2026-06-02,syllable_top100,해,1,1.0,3.785787499975413,3.785787499975413,2.483887499975413,2.483887499975413,0,10
s01,2026-06-02,syllable_top100,회,1,1.0,3.843699700199068,3.843699700199068,2.5419997001990677,2.5419997001990677,0,10
s01,2026-06-02,syllable_top100,후,1,1.0,2.00329319993034,2.00329319993034,1.00149319993034,1.00149319993034,0,10
s01,2026-06-04,basic_consonants,ㄱ,2,1.0,0.6818120999960229,0.6818120999960229,0.5318120999960229,0.5318120999960229,0,1
s01,2026-06-04,basic_consonants,ㄴ,2,1.0,0.6362585499882698,0.6362585499882698,0.4862585499882698,0.4862585499882698,0,1
s01,2026-06-04,basic_consonants,ㄷ,2,1.0,0.8688562999013811,0.8688562999013811,0.7188562999013811,0.7188562999013811,0,1
s01,2026-06-04,basic_consonants,ㅂ,2,1.0,1.3519449001178145,1.3519449001178145,1.2019449001178146,1.2019449001178146,0,1
s01,2026-06-04,basic_consonants,ㅅ,2,1.0,0.8848729500314221,0.8848729500314221,0.7348729500314221,0.7348729500314221,0,1
s01,2026-06-04,basic_consonants,ㅇ,2,1.0,0.7921885499963537,0.7921885499963537,0.6421885499963537,0.6421885499963537,0,1
s01,2026-06-04,basic_consonants,ㅈ,2,1.0,1.1791886000428349,1.1791886000428349,1.029188600042835,1.029188600042835,0,1
s01,2026-06-04,long_consonants,ㄹ,3,1.0,0.7823106665940335,0.8152937998529524,0.4323106665940335,0.4652937998529524,0,2
s01,2026-06-04,long_consonants,ㅁ,3,1.0,1.0517452666535974,0.971386200049892,0.7017452666535974,0.6213862000498921,0,2
s01,2026-06-04,long_consonants,ㅊ,2,0.5,1.3085747000295669,1.3085747000295669,0.9585747000295668,0.9585747000295668,1,2
s01,2026-06-04,long_consonants,ㅋ,3,1.0,0.88262063334696,0.9193380000069736,0.53262063334696,0.5693380000069738,0,2
s01,2026-06-04,long_consonants,ㅌ,3,1.0,0.9355205333946893,0.8933352001477033,0.5855205333946893,0.5433352001477033,0,2
s01,2026-06-04,long_consonants,ㅍ,2,1.0,1.5864384499145672,1.5864384499145672,1.236438449914567,1.236438449914567,0,2
s01,2026-06-04,long_consonants,ㅎ,2,1.0,1.328095650067553,1.328095650067553,0.9780956500675528,0.9780956500675528,0,2
s01,2026-06-04,double_consonants,ㄲ,2,1.0,0.7870039001572877,0.7870039001572877,0.3367039001572877,0.3367039001572877,0,3
s01,2026-06-04,double_consonants,ㄸ,2,1.0,0.782847800059244,0.782847800059244,0.332747800059244,0.332747800059244,0,3
s01,2026-06-04,double_consonants,ㅃ,2,1.0,1.0014407499693334,1.0014407499693334,0.5508407499693334,0.5508407499693334,0,3
s01,2026-06-04,double_consonants,ㅆ,2,1.0,1.0395706499693913,1.0395706499693913,0.5891706499693916,0.5891706499693916,0,3
s01,2026-06-04,double_consonants,ㅉ,2,1.0,0.976062300032936,0.976062300032936,0.525362300032936,0.525362300032936,0,3
s01,2026-06-04,all_consonants,ㄱ,2,1.0,0.7467491498682648,0.7467491498682648,0.5967491498682648,0.5967491498682648,0,4
s01,2026-06-04,all_consonants,ㄲ,2,1.0,0.9294895499479026,0.9294895499479026,0.4791895499479025,0.4791895499479025,0,4
s01,2026-06-04,all_consonants,ㄴ,2,1.0,0.819699649931863,0.819699649931863,0.6696996499318629,0.6696996499318629,0,4
s01,2026-06-04,all_consonants,ㄷ,2,1.0,0.9190396500052884,0.9190396500052884,0.7690396500052884,0.7690396500052884,0,4
s01,2026-06-04,all_consonants,ㄸ,2,1.0,1.159400949953124,1.159400949953124,0.709300949953124,0.709300949953124,0,4
s01,2026-06-04,all_consonants,ㄹ,2,1.0,0.7877461499301717,0.7877461499301717,0.4377461499301717,0.4377461499301717,0,4
s01,2026-06-04,all_consonants,ㅁ,2,1.0,1.43883374996949,1.43883374996949,1.0888337499694898,1.0888337499694898,0,4
s01,2026-06-04,all_consonants,ㅂ,2,1.0,1.2647567000240088,1.2647567000240088,1.1147567000240088,1.1147567000240088,0,4
s01,2026-06-04,all_consonants,ㅃ,2,1.0,1.501209249952808,1.501209249952808,1.050609249952808,1.050609249952808,0,4
s01,2026-06-04,all_consonants,ㅅ,2,1.0,1.0746978500392288,1.0746978500392288,0.9246978500392288,0.9246978500392288,0,4
s01,2026-06-04,all_consonants,ㅆ,2,1.0,1.0223627500236034,1.0223627500236034,0.5719627500236035,0.5719627500236035,0,4
s01,2026-06-04,all_consonants,ㅇ,2,1.0,0.9426331000868231,0.9426331000868231,0.7926331000868231,0.7926331000868231,0,4
s01,2026-06-04,all_consonants,ㅈ,2,1.0,1.3088231000583619,1.3088231000583619,1.158823100058362,1.158823100058362,0,4
s01,2026-06-04,all_consonants,ㅉ,2,1.0,1.0741901500150561,1.0741901500150561,0.6234901500150561,0.6234901500150561,0,4
s01,2026-06-04,all_consonants,ㅊ,2,1.0,1.328572649974376,1.328572649974376,0.9785726499743759,0.9785726499743759,0,4
s01,2026-06-04,all_consonants,ㅋ,2,1.0,1.0953474000561982,1.0953474000561982,0.7453474000561983,0.7453474000561983,0,4
s01,2026-06-04,all_consonants,ㅌ,2,1.0,0.9746445500059053,0.9746445500059053,0.6246445500059054,0.6246445500059054,0,4
s01,2026-06-04,all_consonants,ㅍ,2,1.0,1.7477203001035377,1.7477203001035377,1.3977203001035376,1.3977203001035376,0,4
s01,2026-06-04,all_consonants,ㅎ,2,1.0,1.3549541998654604,1.3549541998654604,1.0049541998654603,1.0049541998654603,0,4
s01,2026-06-04,basic_vowels,ㅏ,2,1.0,0.8803721499862149,0.8803721499862149,0.47947214998621496,0.47947214998621496,0,5
s01,2026-06-04,basic_vowels,ㅓ,2,1.0,0.9643565500155091,0.9643565500155091,0.5632565500155091,0.5632565500155091,0,5
s01,2026-06-04,basic_vowels,ㅗ,2,1.0,0.9058026999700814,0.9058026999700814,0.5051026999700814,0.5051026999700814,0,5
s01,2026-06-04,basic_vowels,ㅜ,2,1.0,0.8886165498988703,0.8886165498988703,0.4873165498988703,0.4873165498988703,0,5
s01,2026-06-04,basic_vowels,ㅡ,2,1.0,1.3290159000316635,1.3290159000316635,0.9790159000316634,0.9790159000316634,0,5
s01,2026-06-04,basic_vowels,ㅣ,2,1.0,1.0243502500234172,1.0243502500234172,0.8743502500234172,0.8743502500234172,0,5
s01,2026-06-04,double_vowels,ㅑ,2,1.0,1.2356741001131013,1.2356741001131013,0.2833741001131014,0.2833741001131014,0,6
s01,2026-06-04,double_vowels,ㅕ,2,1.0,1.2419476500945166,1.2419476500945166,0.2892476500945166,0.2892476500945166,0,6
s01,2026-06-04,double_vowels,ㅛ,2,1.0,1.2591436000075191,1.2591436000075191,0.307243600007519,0.307243600007519,0,6
s01,2026-06-04,double_vowels,ㅠ,2,1.0,1.3396411000285298,1.3396411000285298,0.38654110002852976,0.38654110002852976,0,6
s01,2026-06-04,double_vowels,ㅢ,2,1.0,1.4065408998867497,1.4065408998867497,0.7560408998867497,0.7560408998867497,0,6
s01,2026-06-04,complex_vowels,ㅐ,2,1.0,1.7438605499919506,1.7438605499919506,1.0424605499919504,1.0424605499919504,0,7
s01,2026-06-04,complex_vowels,ㅒ,2,1.0,2.0153002998558804,2.0153002998558804,0.7625002998558805,0.7625002998558805,0,7
s01,2026-06-04,complex_vowels,ㅔ,2,1.0,1.6243794499896467,1.6243794499896467,0.9227794499896467,0.9227794499896467,0,7
s01,2026-06-04,complex_vowels,ㅖ,2,1.0,1.9282139000715688,1.9282139000715688,0.6750139000715687,0.6750139000715687,0,7
s01,2026-06-04,complex_vowels,ㅘ,2,1.0,1.5942206501495093,1.5942206501495093,0.6421206501495093,0.6421206501495093,0,7
s01,2026-06-04,complex_vowels,ㅚ,2,1.0,1.96866414998658,1.96866414998658,1.26746414998658,1.26746414998658,0,7
s01,2026-06-04,complex_vowels,ㅝ,2,1.0,1.7739158499753103,1.7739158499753103,0.8210158499753103,0.8210158499753103,0,7
s01,2026-06-04,complex_vowels,ㅟ,2,1.0,1.670209200005047,1.670209200005047,0.968409200005047,0.968409200005047,0,7
s01,2026-06-04,all_vowels,ㅏ,2,1.0,1.0274872499285266,1.0274872499285266,0.6265872499285265,0.6265872499285265,0,8
s01,2026-06-04,all_vowels,ㅐ,2,1.0,1.3540329500101507,1.3540329500101507,0.6526329500101506,0.6526329500101506,0,8
s01,2026-06-04,all_vowels,ㅑ,2,1.0,1.5210465501295403,1.5210465501295403,0.5687465501295403,0.5687465501295403,0,8
s01,2026-06-04,all_vowels,ㅒ,2,1.0,2.043852249858901,2.043852249858901,0.791052249858901,0.791052249858901,0,8
s01,2026-06-04,all_vowels,ㅓ,2,1.0,1.056315349880606,1.056315349880606,0.6552153498806059,0.6552153498806059,0,8
s01,2026-06-04,all_vowels,ㅔ,2,1.0,1.413447399972938,1.413447399972938,0.711847399972938,0.711847399972938,0,8
s01,2026-06-04,all_vowels,ㅕ,2,1.0,1.9006116499658676,1.9006116499658676,0.9479116499658673,0.9479116499658673,0,8
s01,2026-06-04,all_vowels,ㅖ,2,1.0,1.8252335001016036,1.8252335001016036,0.5720335001016035,0.5720335001016035,0,8
s01,2026-06-04,all_vowels,ㅗ,2,1.0,1.1598028499865904,1.1598028499865904,0.7591028499865904,0.7591028499865904,0,8
s01,2026-06-04,all_vowels,ㅘ,2,1.0,1.4740088999969885,1.4740088999969885,0.5219088999969884,0.5219088999969884,0,8
s01,2026-06-04,all_vowels,ㅚ,2,1.0,1.9218771000159902,1.9218771000159902,1.2206771000159904,1.2206771000159904,0,8
s01,2026-06-04,all_vowels,ㅛ,2,1.0,1.5519562000408769,1.5519562000408769,0.6000562000408768,0.6000562000408768,0,8
s01,2026-06-04,all_vowels,ㅜ,2,1.0,1.2416612498927861,1.2416612498927861,0.8403612498927862,0.8403612498927862,0,8
s01,2026-06-04,all_vowels,ㅝ,2,1.0,1.5487624000525102,1.5487624000525102,0.5958624000525102,0.5958624000525102,0,8
s01,2026-06-04,all_vowels,ㅟ,2,1.0,1.4634636999107897,1.4634636999107897,0.7616636999107897,0.7616636999107897,0,8
s01,2026-06-04,all_vowels,ㅠ,2,1.0,1.5192827500868589,1.5192827500868589,0.5661827500868589,0.5661827500868589,0,8
s01,2026-06-04,all_vowels,ㅡ,2,1.0,1.4288972999202088,1.4288972999202088,1.0788972999202087,1.0788972999202087,0,8
s01,2026-06-04,all_vowels,ㅢ,2,1.0,1.3538793500047177,1.3538793500047177,0.7033793500047177,0.7033793500047177,0,8
s01,2026-06-04,all_vowels,ㅣ,2,1.0,0.9487245499622077,0.9487245499622077,0.7987245499622077,0.7987245499622077,0,8
s01,2026-06-04,syllable_top50,가,1,1.0,1.444540300173685,1.444540300173685,0.643140300173685,0.643140300173685,0,9
s01,2026-06-04,syllable_top50,개,1,1.0,2.557238199980929,2.557238199980929,1.4553381999809294,1.4553381999809294,0,9
s01,2026-06-04,syllable_top50,것,1,1.0,2.2929970999248326,2.2929970999248326,1.0909970999248326,1.0909970999248326,0,9
s01,2026-06-04,syllable_top50,경,1,1.0,2.9214438998606056,2.9214438998606056,1.1673438998606056,1.1673438998606056,0,9
s01,2026-06-04,syllable_top50,계,1,1.0,2.767904399894178,2.767904399894178,1.1142043998941782,1.1142043998941782,0,9
s01,2026-06-04,syllable_top50,고,1,1.0,1.5785366999916732,1.5785366999916732,0.7773366999916732,0.7773366999916732,0,9
s01,2026-06-04,syllable_top50,공,1,1.0,1.90573520003818,1.90573520003818,0.7036352000381796,0.7036352000381796,0,9
s01,2026-06-04,syllable_top50,관,1,1.0,2.621666900115088,2.621666900115088,0.8688669001150875,0.8688669001150875,0,9
s01,2026-06-04,syllable_top50,구,1,1.0,1.567007499979809,1.567007499979809,0.765207499979809,0.765207499979809,0,9
s01,2026-06-04,syllable_top50,국,1,1.0,2.1665675998665392,2.1665675998665392,0.9644675998665392,0.9644675998665392,0,9
s01,2026-06-04,syllable_top50,기,1,1.0,1.564928299980238,1.564928299980238,1.014428299980238,1.014428299980238,0,9
s01,2026-06-04,syllable_top50,나,1,1.0,2.4044653000310063,2.4044653000310063,1.6030653000310062,1.6030653000310062,0,9
s01,2026-06-04,syllable_top50,내,1,1.0,2.6961403000168502,2.6961403000168502,1.59424030001685,1.59424030001685,0,9
s01,2026-06-04,syllable_top50,대,1,1.0,2.947122300043702,2.947122300043702,1.845222300043702,1.845222300043702,0,9
s01,2026-06-04,syllable_top50,도,1,1.0,1.4411454999353737,1.4411454999353737,0.6399454999353736,0.6399454999353736,0,9
s01,2026-06-04,syllable_top50,동,1,1.0,2.474547700025141,2.474547700025141,1.272447700025141,1.272447700025141,0,9
s01,2026-06-04,syllable_top50,등,1,1.0,3.4545501000247896,3.4545501000247896,2.3031501000247894,2.3031501000247894,0,9
s01,2026-06-04,syllable_top50,리,1,1.0,1.577021700097248,1.577021700097248,0.826521700097248,0.826521700097248,0,9
s01,2026-06-04,syllable_top50,보,1,1.0,1.7320293001830578,1.7320293001830578,0.9308293001830578,0.9308293001830578,0,9
s01,2026-06-04,syllable_top50,부,1,1.0,2.7650882999878377,2.7650882999878377,1.9632882999878376,1.9632882999878376,0,9
s01,2026-06-04,syllable_top50,비,1,1.0,1.7030042000114918,1.7030042000114918,1.1525042000114918,1.1525042000114918,0,9
s01,2026-06-04,syllable_top50,사,1,1.0,1.6254489000421015,1.6254489000421015,0.8240489000421017,0.8240489000421017,0,9
s01,2026-06-04,syllable_top50,상,1,1.0,2.3512843002099544,2.3512843002099544,1.1489843002099545,1.1489843002099545,0,9
s01,2026-06-04,syllable_top50,서,1,1.0,1.6588601002003998,1.6588601002003998,0.8572601002003998,0.8572601002003998,0,9
s01,2026-06-04,syllable_top50,선,1,1.0,2.2996678000781685,2.2996678000781685,1.0978678000781683,1.0978678000781683,0,9
s01,2026-06-04,syllable_top50,성,1,1.0,2.3163964999839664,2.3163964999839664,1.1138964999839664,1.1138964999839664,0,9
s01,2026-06-04,syllable_top50,소,1,1.0,1.567437400110066,1.567437400110066,0.7662374001100659,0.7662374001100659,0,9
s01,2026-06-04,syllable_top50,수,1,1.0,1.5866620000451803,1.5866620000451803,0.7848620000451804,0.7848620000451804,0,9
s01,2026-06-04,syllable_top50,스,1,0.0,1.8435879999306053,1.8435879999306053,1.0930879999306051,1.0930879999306051,1,9
s01,2026-06-04,syllable_top50,시,1,1.0,1.5617509000003338,1.5617509000003338,1.0112509000003338,1.0112509000003338,0,9
s01,2026-06-04,syllable_top50,아,1,1.0,1.5640174001455307,1.5640174001455307,0.7626174001455307,0.7626174001455307,0,9
s01,2026-06-04,syllable_top50,업,1,1.0,3.1244849001523107,3.1244849001523107,1.9222849001523108,1.9222849001523108,0,9
s01,2026-06-04,syllable_top50,오,1,1.0,1.3479926998261362,1.3479926998261362,0.5467926998261362,0.5467926998261362,0,9
s01,2026-06-04,syllable_top50,원,1,1.0,2.712786000221968,2.712786000221968,0.959186000221968,0.959186000221968,0,9
s01,2026-06-04,syllable_top50,위,1,1.0,2.183062299853191,2.183062299853191,1.0807622998531907,1.0807622998531907,0,9
s01,2026-06-04,syllable_top50,의,1,1.0,2.144954699790105,2.144954699790105,1.0939546997901053,1.0939546997901053,0,9
s01,2026-06-04,syllable_top50,이,1,1.0,1.7511480001267046,1.7511480001267046,1.2006480001267046,1.2006480001267046,0,9
s01,2026-06-04,syllable_top50,인,1,1.0,2.874958199914545,2.874958199914545,1.9242581999145447,1.9242581999145447,0,9
s01,2026-06-04,syllable_top50,일,1,1.0,3.131077100057155,3.131077100057155,1.9803771000571548,1.9803771000571548,0,9
s01,2026-06-04,syllable_top50,있,1,1.0,3.416587800020352,3.416587800020352,2.1652878000203524,2.1652878000203524,0,9
s01,2026-06-04,syllable_top50,자,1,1.0,1.5290514000225812,1.5290514000225812,0.7276514000225812,0.7276514000225812,0,9
s01,2026-06-04,syllable_top50,장,1,1.0,2.4378200999926776,2.4378200999926776,1.2355200999926776,1.2355200999926776,0,9
s01,2026-06-04,syllable_top50,전,1,1.0,1.8437979000154885,1.8437979000154885,0.6419979000154883,0.6419979000154883,0,9
s01,2026-06-04,syllable_top50,정,1,1.0,1.9243445000611248,1.9243445000611248,0.7218445000611247,0.7218445000611247,0,9
s01,2026-06-04,syllable_top50,제,1,1.0,2.723563800100237,2.723563800100237,1.6214638001002373,1.6214638001002373,0,9
s01,2026-06-04,syllable_top50,주,1,1.0,1.864149099914357,1.864149099914357,1.062349099914357,1.062349099914357,0,9
s01,2026-06-04,syllable_top50,중,1,1.0,3.694828500039876,3.694828500039876,2.4921285000398754,2.4921285000398754,0,9
s01,2026-06-04,syllable_top50,지,1,1.0,1.924374699825421,1.924374699825421,1.373874699825421,1.373874699825421,0,9
s01,2026-06-04,syllable_top50,하,1,1.0,1.6802220998797566,1.6802220998797566,0.6788220998797565,0.6788220998797565,0,9
s01,2026-06-04,syllable_top50,회,1,1.0,3.215444100089371,3.215444100089371,1.9137441000893711,1.9137441000893711,0,9
