day,session_name,trial_index_session,correct,rt_sec,moving_accuracy,moving_rt,moving_rt_from_stimulus,target_label,selected_label
2026-05-28,all_consonants,1,1,1.0419776999624446,1.0,1.0419776999624446,0.8919776999624446,ㄴ,ㄴ
2026-05-28,all_consonants,2,1,1.531216099974699,1.0,1.286596899968572,0.986446899968572,ㄲ,ㄲ
2026-05-28,all_consonants,3,1,2.2247331000398844,1.0,1.5993089666590095,1.3492089666590097,ㅂ,ㅂ
2026-05-28,all_consonants,4,1,2.885624499991536,1.0,1.9208878499921411,1.6458128499921412,ㅍ,ㅍ
2026-05-28,all_consonants,5,1,1.4745480000274256,1.0,1.831619879999198,1.5214398799991982,ㅃ,ㅃ
2026-05-28,all_consonants,6,1,1.5240190000040457,1.0,1.7803530666666727,1.463536400000006,ㄹ,ㄹ
2026-05-28,all_consonants,7,1,1.2451614000601694,1.0,1.7038971142943151,1.410911400008601,ㅈ,ㅈ
2026-05-28,all_consonants,8,1,1.0807507000863552,1.0,1.62600381251832,1.31330381251832,ㅉ,ㅉ
2026-05-28,all_consonants,9,1,1.4708763000089675,1.0,1.6087674222395032,1.314145200017281,ㅅ,ㅅ
2026-05-28,all_consonants,10,1,1.1767853999044746,1.0,1.5655692200060003,1.2854092200060003,ㄷ,ㄷ
2026-05-28,all_consonants,11,1,0.9393300999654456,1.0,1.5553044600063004,1.2751444600063004,ㄱ,ㄱ
2026-05-28,all_consonants,12,1,0.9704690999351442,1.0,1.4992297600023448,1.249099760002345,ㅇ,ㅇ
2026-05-28,all_consonants,13,1,1.4178130999207497,1.0,1.4185377599904314,1.1484077599904314,ㅌ,ㅌ
2026-05-28,all_consonants,14,1,1.6898794999578968,1.0,1.2989632599870675,1.0288332599870675,ㅎ,ㅎ
2026-05-28,all_consonants,15,1,1.308316099923104,1.0,1.2823400699766352,1.0122300699766353,ㅆ,ㅆ
2026-05-28,all_consonants,16,1,1.5646117000142112,1.0,1.2863993399776519,1.016289339977652,ㅋ,ㅋ
2026-05-28,all_consonants,17,1,1.90517899999395,1.0,1.3524010999710299,1.06229109997103,ㅊ,ㅊ
2026-05-28,all_consonants,18,1,1.687602199963294,1.0,1.4130862499587238,1.1230362499587239,ㄸ,ㄸ
2026-05-28,all_consonants,19,1,1.4204679999966174,1.0,1.4080454199574888,1.0979954199574888,ㅁ,ㅁ
2026-05-28,all_consonants,20,1,1.3882143999217078,1.0,1.4291883199592121,1.099138319959212,ㅌ,ㅌ
2026-05-28,all_consonants,21,1,2.102277699974365,1.0,1.545483079960104,1.195433079960104,ㅍ,ㅍ
2026-05-28,all_consonants,22,1,1.2210542999673637,1.0,1.570541599963326,1.220491599963326,ㄷ,ㄷ
2026-05-28,all_consonants,23,1,2.291120700072497,1.0,1.6578723599785008,1.2977523599785008,ㅉ,ㅉ
2026-05-28,all_consonants,24,1,0.9370482000522316,1.0,1.5825892299879343,1.242469229987934,ㅈ,ㅈ
2026-05-28,all_consonants,25,1,1.003053600084968,1.0,1.5520629800041206,1.2419829800041204,ㅅ,ㅅ
2026-05-28,all_consonants,26,1,1.3562100999988616,1.0,1.5312228200025857,1.2211428200025856,ㅊ,ㅊ
2026-05-28,all_consonants,27,1,1.5662917000008747,1.0,1.497334090003278,1.1772140900032781,ㅆ,ㅆ
2026-05-28,all_consonants,28,1,1.4710064999526369,1.0,1.4756745200022123,1.1655645200022122,ㅋ,ㅋ
2026-05-28,all_consonants,29,1,1.6175372999859974,1.0,1.4953814500011504,1.1852714500011503,ㅁ,ㅁ
2026-05-28,all_consonants,30,1,0.9783504999941216,1.0,1.4543950600083917,1.1642850600083918,ㅇ,ㅇ
2026-05-28,all_consonants,31,1,1.4821152000222355,1.0,1.3923788100131786,1.1022688100131788,ㅎ,ㅎ
2026-05-28,all_consonants,32,1,1.286746000056155,1.0,1.398947980022058,1.108837980022058,ㅂ,ㅂ
2026-05-28,all_consonants,33,1,1.302087499992922,1.0,1.3000446600141005,1.0099746600141004,ㄲ,ㄲ
2026-05-28,all_consonants,34,1,1.3400651999982074,1.0,1.340346360008698,1.020216360008698,ㅃ,ㅃ
2026-05-28,all_consonants,35,1,1.0537527999840677,1.0,1.345416279998608,0.9952762799986079,ㄸ,ㄸ
2026-05-28,all_consonants,36,1,1.0307729999767616,1.0,1.312872569996398,0.9627325699963979,ㄹ,ㄹ
2026-05-28,all_consonants,37,1,1.4072552000870928,1.0,1.2969689200050198,0.9768689200050197,ㄱ,ㄱ
2026-05-28,all_consonants,38,1,0.7889734000200406,1.0,1.22876561001176,0.9286656100117602,ㄴ,ㄴ
2026-05-28,all_vowels,1,1,2.150130199966952,1.0,2.150130199966952,1.4485301999669522,ㅔ,ㅔ
2026-05-28,all_vowels,2,1,1.9841219999361783,1.0,2.0671260999515653,1.5158760999515652,ㅏ,ㅏ
2026-05-28,all_vowels,3,1,1.3237240000162274,1.0,1.8193253999731194,1.234992066639786,ㅢ,ㅢ
2026-05-28,all_vowels,4,1,1.1139605999924242,1.0,1.6429841999779455,1.1045591999779456,ㅗ,ㅗ
2026-05-28,all_vowels,5,1,3.12256879999768,1.0,1.9389011199818924,1.3175811199818923,ㅝ,ㅝ
2026-05-28,all_vowels,6,1,2.014037000015378,1.0,1.95142376665414,1.3167904333208067,ㅚ,ㅚ
2026-05-28,all_vowels,7,1,1.83291380002629,1.0,1.93449377142159,1.2903223428501616,ㅐ,ㅐ
2026-05-28,all_vowels,8,1,1.6283097000559792,1.0,1.8962207625008887,1.2888207625008885,ㅡ,ㅡ
2026-05-28,all_vowels,9,1,2.554339899914339,1.0,1.9693451111023832,1.290233999991272,ㅒ,ㅒ
2026-05-28,all_vowels,10,1,1.3234660000307483,1.0,1.9047571999952198,1.2534271999952196,ㅜ,ㅜ
2026-05-28,all_vowels,11,1,1.2323218999663368,1.0,1.8129763699951582,1.2168063699951581,ㅣ,ㅣ
2026-05-28,all_vowels,12,1,1.98299270006828,1.0,1.8128634400083683,1.131463440008368,ㅖ,ㅖ
2026-05-28,all_vowels,13,1,2.2670664000324905,1.0,1.9071976800099946,1.1955776800099946,ㅕ,ㅕ
2026-05-28,all_vowels,14,1,1.6229287000605837,1.0,1.9580944900168107,1.1913544900168105,ㅛ,ㅛ
2026-05-28,all_vowels,15,1,2.134044599952176,1.0,1.8592420700122603,1.1176120700122603,ㅟ,ㅟ
2026-05-28,all_vowels,16,1,2.1343337999423966,1.0,1.871271750004962,1.1596517500049621,ㅓ,ㅓ
2026-05-28,all_vowels,17,1,2.134182499954477,1.0,1.9013986199977808,1.1647086199977807,ㅘ,ㅘ
2026-05-28,all_vowels,18,1,1.7738886000588536,1.0,1.9159565099980682,1.1189565099980683,ㅠ,ㅠ
2026-05-28,all_vowels,19,1,1.6542035000165924,1.0,1.8259428700082936,1.0589928700082933,ㅑ,ㅑ
2026-05-28,all_vowels,20,1,1.5346608998952431,1.0,1.847062359994743,1.024972359994743,ㅕ,ㅕ
2026-05-28,all_vowels,21,1,1.9832179000368344,1.0,1.9221519600017927,1.0448819600017927,ㅟ,ㅟ
2026-05-28,all_vowels,22,1,2.164586600032635,1.0,1.9403113499982283,1.0630413499982283,ㅖ,ㅖ
2026-05-28,all_vowels,23,1,1.9234760999679563,1.0,1.905952319991775,1.0589023199917749,ㅢ,ㅢ
2026-05-28,all_vowels,24,1,1.9555195000721144,1.0,1.939211399992928,1.117211399992928,ㅐ,ㅐ
2026-05-28,all_vowels,25,1,1.6555988000473008,1.0,1.8913668200024403,1.0443568200024402,ㅛ,ㅛ
2026-05-28,all_vowels,26,1,1.29388619994279,1.0,1.8073220600024797,0.9603520600024797,ㅗ,ㅗ
2026-05-28,all_vowels,27,1,2.042922099935822,1.0,1.7981960200006142,0.9211560200006141,ㅒ,ㅒ
2026-05-28,all_vowels,28,1,1.143364599905908,1.0,1.7351436199853196,0.9132836199853196,ㅜ,ㅜ
2026-05-28,all_vowels,29,1,1.7431076999055222,1.0,1.7440340399742127,0.9221740399742127,ㅑ,ㅑ
2026-05-28,all_vowels,30,1,1.4421145000960678,1.0,1.734779399994295,0.9731893999942949,ㅡ,ㅡ
2026-05-28,all_vowels,31,0,1.1158307999139652,0.9,1.6480406899820081,0.8864706899820082,ㅔ,ㅓ
2026-05-28,all_vowels,32,1,1.7542300999630245,0.9,1.607005039975047,0.8755450399750471,ㅘ,ㅘ
2026-05-28,all_vowels,33,1,1.7970312000252306,0.9,1.5943605499807745,0.8878605499807743,ㅏ,ㅏ
2026-05-28,all_vowels,34,1,3.4424502999754623,0.9,1.7430536299711092,1.0365736299711092,ㅚ,ㅚ
2026-05-28,all_vowels,35,1,2.582017800072208,0.9,1.8356955299736,1.1291155299736002,ㅝ,ㅝ
2026-05-28,all_vowels,36,1,1.387211999972351,0.9,1.8450281099765562,1.1384081099765562,ㅓ,ㅓ
2026-05-28,all_vowels,37,1,1.336602900060825,0.9,1.7743961899890563,1.1780561899890565,ㅣ,ㅣ
2026-05-28,all_vowels,38,1,1.5184610000578689,0.9,1.8119058300042525,1.1603858300042524,ㅠ,ㅠ
2026-05-28,all_vowels,39,1,2.111278700060211,0.9,1.8487229300197214,1.1671129300197214,ㅖ,ㅖ
2026-05-28,all_vowels,40,1,1.6282425000099463,0.9,1.8673357300111093,1.1505857300111093,ㅐ,ㅐ
2026-05-28,all_vowels,41,1,1.5340602999785915,1.0,1.909158680017572,1.1923886800175718,ㅟ,ㅟ
2026-05-28,all_vowels,42,1,1.4590236000949517,1.0,1.8796380300307647,1.2430780300307647,ㅣ,ㅣ
2026-05-28,all_vowels,43,1,1.3269226000411436,1.0,1.832627170032356,1.196027170032356,ㅜ,ㅜ
2026-05-28,all_vowels,44,1,1.1314180999761447,1.0,1.601523950032424,0.9949539500324243,ㅏ,ㅏ
2026-05-28,all_vowels,45,1,1.5164692000253126,1.0,1.4949690900277346,0.8883790900277345,ㅠ,ㅠ
2026-05-28,all_vowels,46,1,1.2517444000113755,1.0,1.4814223300316371,0.8799423300316371,ㅡ,ㅡ
2026-05-28,all_vowels,47,1,1.902443900005892,1.0,1.5380064300261438,0.8262464300261438,ㅒ,ㅒ
2026-05-28,all_vowels,48,1,1.8393353999126705,1.0,1.570093870011624,0.913533870011624,ㅓ,ㅓ
2026-05-28,all_vowels,49,1,1.6321505999658257,1.0,1.5221810600021854,0.8957510600021854,ㅛ,ㅛ
2026-05-28,all_vowels,50,1,1.7463907999917865,1.0,1.5339958900003694,0.9075458900003694,ㅔ,ㅔ
2026-05-28,all_vowels,51,1,2.622816199902445,1.0,1.6428714799927548,0.9913914799927548,ㅘ,ㅘ
2026-05-28,all_vowels,52,1,1.2963900999166071,1.0,1.6266081299749202,0.9500581299749202,ㅗ,ㅗ
2026-05-28,all_vowels,53,1,1.864618799998425,1.0,1.6803777499706485,0.9486877499706484,ㅕ,ㅕ
2026-05-28,all_vowels,54,1,2.888157999957912,1.0,1.8560517399688252,1.0691617399688251,ㅝ,ㅝ
2026-05-28,all_vowels,55,1,1.6507934000110254,1.0,1.8694841599673964,1.0826741599673964,ㅑ,ㅑ
2026-05-28,all_vowels,56,1,1.2517372000729663,1.0,1.8694834399735556,1.0526234399735555,ㅢ,ㅢ
2026-05-28,all_vowels,57,1,1.9760216999566185,1.0,1.8768412199686282,1.1151412199686281,ㅚ,ㅚ
2026-05-28,all_vowels,58,1,1.870377499959432,1.0,1.8799454299733043,1.0630654299733042,ㅝ,ㅝ
2026-05-28,all_vowels,59,1,2.006896400009282,1.0,1.91742000997765,1.1255500099776499,ㅟ,ㅟ
2026-05-28,all_vowels,60,1,1.743176699965261,1.0,1.9170985999749974,1.1001585999749974,ㅑ,ㅑ
2026-05-28,all_vowels,61,1,1.310810999944806,1.0,1.7858980799792334,1.0240780799792335,ㅏ,ㅏ
2026-05-28,all_vowels,62,1,1.870887099998072,1.0,1.8433477799873799,0.99627777998738,ㅖ,ㅖ
2026-05-28,all_vowels,63,1,1.2217735000886023,1.0,1.7790632499963976,0.9871332499963976,ㅜ,ㅜ
2026-05-28,all_vowels,64,1,1.484365899930708,1.0,1.6386840399936773,0.8719040399936773,ㅐ,ㅐ
2026-05-28,all_vowels,65,1,1.6007398000219837,1.0,1.6336786799947731,0.8669186799947731,ㅘ,ㅘ
2026-05-28,all_vowels,66,1,1.2700576999923214,1.0,1.6355107299867087,0.8988007299867087,ㅡ,ㅡ
2026-05-28,all_vowels,67,1,1.1128507000394166,1.0,1.5491936299949887,0.8424936299949884,ㅓ,ㅓ
2026-05-28,all_vowels,68,1,1.5669250999344513,1.0,1.5188483899924905,0.8122483899924904,ㅛ,ㅛ
2026-05-28,all_vowels,69,1,1.5723730999743566,1.0,1.475396059988998,0.7437060599889979,ㅕ,ㅕ
2026-05-28,basic_consonants,1,1,1.3837559999665243,1.0,1.3837559999665243,1.2337559999665246,ㅅ,ㅅ
2026-05-28,basic_consonants,2,1,0.7531392000382766,1.0,1.0684476000024006,0.9184476000024007,ㅇ,ㅇ
2026-05-28,basic_consonants,3,1,0.7237412000540644,1.0,0.9535454666862885,0.8035454666862885,ㄱ,ㄱ
2026-05-28,basic_consonants,4,1,0.8142292000120506,1.0,0.918716400017729,0.768716400017729,ㄷ,ㄷ
2026-05-28,basic_consonants,5,1,1.0614955999189988,1.0,0.9472722399979829,0.797272239997983,ㅂ,ㅂ
2026-05-28,basic_consonants,6,1,0.7229065001010895,1.0,0.9098779500151674,0.7598779500151673,ㄴ,ㄴ
2026-05-28,basic_consonants,7,1,0.8147300999844447,1.0,0.8962854000107784,0.7462854000107785,ㅈ,ㅈ
2026-05-28,basic_consonants,8,1,0.842489599948749,1.0,0.8895609250030247,0.7395609250030247,ㄴ,ㄴ
2026-05-28,basic_consonants,9,1,0.7415433999849483,1.0,0.8731145333343496,0.7231145333343496,ㅈ,ㅈ
2026-05-28,basic_consonants,10,1,0.8141400000313297,1.0,0.8672170800040476,0.7172170800040476,ㄷ,ㄷ
2026-05-28,basic_consonants,11,1,0.724030299927108,1.0,0.801244510000106,0.651244510000106,ㄱ,ㄱ
2026-05-28,basic_consonants,12,1,0.9039020000491292,1.0,0.8163207900011912,0.6663207900011912,ㅇ,ㅇ
2026-05-28,basic_consonants,13,1,1.3837942000245675,1.0,0.8823260899982415,0.7323260899982416,ㅅ,ㅅ
2026-05-28,basic_consonants,14,1,0.8740997000131756,1.0,0.888313139998354,0.7383131399983539,ㅂ,ㅂ
2026-05-28,basic_vowels,1,1,1.7601483000908047,1.0,1.7601483000908047,1.3594483000908046,ㅗ,ㅗ
2026-05-28,basic_vowels,2,1,1.4086211000103503,1.0,1.5843847000505775,1.2090347000505774,ㅡ,ㅡ
2026-05-28,basic_vowels,3,1,1.1447892000433058,1.0,1.4378528667148203,1.137619533381487,ㅣ,ㅣ
2026-05-28,basic_vowels,4,1,1.087547600036487,1.0,1.350276550045237,1.024776550045237,ㅜ,ㅜ
2026-05-28,basic_vowels,5,1,1.2331985000055283,1.0,1.3268609400372953,0.9862409400372952,ㅓ,ㅓ
2026-05-28,basic_vowels,6,1,1.0229380000382662,1.0,1.2762071167041238,0.925540450037457,ㅏ,ㅏ
2026-05-28,basic_vowels,7,1,0.9390578999882564,1.0,1.2280429428875712,0.8701429428875712,ㅜ,ㅜ
2026-05-28,basic_vowels,8,1,1.0965970000252128,1.0,1.2116122000297764,0.8546997000297765,ㅡ,ㅡ
2026-05-28,basic_vowels,9,1,0.932286600000225,1.0,1.1805760222487152,0.8187538000264929,ㅓ,ㅓ
2026-05-28,basic_vowels,10,1,0.9934596000239252,1.0,1.1618643800262363,0.7961343800262362,ㅏ,ㅏ
2026-05-28,basic_vowels,11,1,0.9544135000323876,1.0,1.0812909000203945,0.7155609000203944,ㅗ,ㅗ
2026-05-28,basic_vowels,12,1,1.18866980005987,1.0,1.0592957700253465,0.7135657700253464,ㅣ,ㅣ
2026-05-28,complex_vowels,1,1,3.40169790002983,1.0,3.40169790002983,2.1484979000298305,ㅖ,ㅖ
2026-05-28,complex_vowels,2,1,4.811304000089876,1.0,4.1065009500598535,3.003450950059853,ㅝ,ㅝ
2026-05-28,complex_vowels,3,1,5.057760299998336,1.0,4.423587400039348,3.4544207333726806,ㅐ,ㅐ
2026-05-28,complex_vowels,4,1,2.4306960999965668,1.0,3.9253645750286523,2.9604645750286522,ㅘ,ㅘ
2026-05-28,complex_vowels,5,1,2.6267859000945464,1.0,3.6656488400418312,2.643168840041831,ㅒ,ㅒ
2026-05-28,complex_vowels,6,1,3.760424099978991,1.0,3.6814447166980244,2.7125113833646908,ㅚ,ㅚ
2026-05-28,complex_vowels,7,1,2.1940654000500217,1.0,3.468961957176881,2.5381905286054525,ㅟ,ㅟ
2026-05-28,complex_vowels,8,1,2.347179799922742,1.0,3.3287391875201138,2.4266141875201135,ㅔ,ㅔ
2026-05-28,complex_vowels,9,1,2.003777000005357,1.0,3.181521166685141,2.3017211666851405,ㅚ,ㅚ
2026-05-28,complex_vowels,10,1,3.702470400021412,1.0,3.233616090018768,2.316516090018768,ㅒ,ㅒ
2026-05-28,complex_vowels,11,1,2.945420500007458,1.0,3.1879883500165307,2.3009183500165302,ㅝ,ㅝ
2026-05-28,complex_vowels,12,1,2.148198299924843,1.0,2.921677780000027,2.059757780000027,ㅐ,ㅐ
2026-05-28,complex_vowels,13,1,2.2934265000512823,1.0,2.645244400005322,1.728144400005322,ㅖ,ㅖ
2026-05-28,complex_vowels,14,1,2.020017100032419,1.0,2.604176500008907,1.6870765000089072,ㅘ,ㅘ
2026-05-28,complex_vowels,15,1,3.752650199923664,1.0,2.716762929991819,1.8547829299918188,ㅔ,ㅔ
2026-05-28,complex_vowels,16,1,1.7115569000598043,1.0,2.5118762099999,1.6498362099999002,ㅟ,ㅟ
2026-05-28,double_consonants,1,1,1.7130038000177592,1.0,1.7130038000177592,1.2626038000177593,ㅆ,ㅆ
2026-05-28,double_consonants,2,1,1.1432923000538722,1.0,1.4281480500358157,0.9778980500358158,ㄸ,ㄸ
2026-05-28,double_consonants,3,1,1.9537250000284985,1.0,1.6033403667000432,1.1529403667000435,ㅉ,ㅉ
2026-05-28,double_consonants,4,1,0.8733996000373736,1.0,1.4208551750343759,0.9704801750343759,ㄲ,ㄲ
2026-05-28,double_consonants,5,1,2.2540443000616506,1.0,1.5874930000398308,1.1370730000398308,ㅃ,ㅃ
2026-05-28,double_consonants,6,1,1.0559028000570834,1.0,1.4988946333760396,1.0484446333760395,ㅃ,ㅃ
2026-05-28,double_consonants,7,1,0.8468325999565423,1.0,1.4057429143161113,0.9553143428875399,ㄲ,ㄲ
2026-05-28,double_consonants,8,1,1.443914300063625,1.0,1.4105143375345506,0.9600893375345506,ㅆ,ㅆ
2026-05-28,double_consonants,9,1,0.9345369999064131,1.0,1.3576279666869797,0.9071724111314242,ㅉ,ㅉ
2026-05-28,double_consonants,10,1,1.353255399968475,1.0,1.3571907100151293,0.9067707100151294,ㄸ,ㄸ
2026-05-28,double_vowels,1,1,1.6404276000102982,1.0,1.6404276000102982,0.6885276000102981,ㅛ,ㅛ
2026-05-28,double_vowels,2,1,1.354914699913934,1.0,1.497671149962116,0.545371149962116,ㅕ,ㅕ
2026-05-28,double_vowels,3,1,1.1440806000027806,1.0,1.3798076333090041,0.42724096664233757,ㅠ,ㅠ
2026-05-28,double_vowels,4,1,1.41295349993743,1.0,1.3880940999661107,0.43559409996611065,ㅑ,ㅑ
2026-05-28,double_vowels,5,1,1.9900837999302892,1.0,1.5084920399589463,0.6163920399589464,ㅢ,ㅢ
2026-05-28,double_vowels,6,1,1.4073351999977604,1.0,1.491632566632082,0.5895658999654153,ㅛ,ㅛ
2026-05-28,double_vowels,7,1,1.2725941999815404,1.0,1.4603413713962905,0.5510413713962904,ㅕ,ㅕ
2026-05-28,double_vowels,8,1,1.3384109999751672,1.0,1.44510007496865,0.53032507496865,ㅠ,ㅠ
2026-05-28,double_vowels,9,1,1.328579599969089,1.0,1.4321533555242543,0.5467422444131432,ㅢ,ㅢ
2026-05-28,double_vowels,10,1,1.5015328999143094,1.0,1.4390913099632598,0.5469913099632598,ㅑ,ㅑ
2026-05-28,long_consonants,1,1,2.1026975999120623,1.0,2.1026975999120623,1.7526975999120622,ㅊ,ㅊ
2026-05-28,long_consonants,2,1,1.5923616000218317,1.0,1.847529599966947,1.497529599966947,ㅋ,ㅋ
2026-05-28,long_consonants,3,1,1.4723114999942482,1.0,1.7224568999760475,1.3724568999760471,ㅁ,ㅁ
2026-05-28,long_consonants,4,1,1.352508399984799,1.0,1.6299697749782354,1.2799697749782353,ㄹ,ㄹ
2026-05-28,long_consonants,5,1,1.62497650005389,1.0,1.6289711199933663,1.2789711199933662,ㅌ,ㅌ
2026-05-28,long_consonants,6,1,2.0148633000208065,1.0,1.693286483331273,1.3432864833312728,ㅎ,ㅎ
2026-05-28,long_consonants,7,1,2.2543065000791103,1.0,1.7734322000095355,1.4234322000095354,ㅍ,ㅍ
2026-05-28,long_consonants,8,1,1.3533851000247523,1.0,1.7209263125114376,1.3709263125114375,ㅍ,ㅍ
2026-05-28,long_consonants,9,1,1.4157650000415742,1.0,1.687019500014786,1.337019500014786,ㅊ,ㅊ
2026-05-28,long_consonants,10,1,1.173603700008243,1.0,1.6356779200141318,1.2856779200141317,ㅁ,ㅁ
2026-05-28,long_consonants,11,1,2.4627575998893008,1.0,1.6716839200118556,1.3216839200118558,ㅎ,ㅎ
2026-05-28,long_consonants,12,1,1.204655300010927,1.0,1.6329132900107652,1.2829132900107652,ㅌ,ㅌ
2026-05-28,long_consonants,13,1,0.9937551999464632,1.0,1.5850576600059867,1.2350576600059866,ㄹ,ㄹ
2026-05-28,long_consonants,14,1,1.1445029000751674,1.0,1.5642571100150235,1.2142571100150235,ㅋ,ㅋ
2026-05-28,syllable_top50,1,1,4.036764199961908,1.0,4.036764199961908,2.834464199961908,장,장
2026-05-28,syllable_top50,2,1,2.9160179999889806,1.0,3.4763910999754444,1.9984410999754445,원,원
2026-05-28,syllable_top50,3,1,4.553526100004092,1.0,3.8354360999849937,2.482769433318327,제,제
2026-05-28,syllable_top50,4,1,2.43332269997336,1.0,3.484907749982085,2.282782749982085,스,스
2026-05-28,syllable_top50,5,1,3.0354669999796897,1.0,3.395019599981606,2.243179599981606,인,인
2026-05-28,syllable_top50,6,1,3.814369599916972,1.0,3.4649112666375004,2.304627933304167,성,성
2026-05-28,syllable_top50,7,1,2.589902200037613,1.0,3.3399099714089453,2.1735956856946594,정,정
2026-05-28,syllable_top50,8,1,2.526939300005324,1.0,3.2382886374834925,2.0675136374834926,것,것
2026-05-28,syllable_top50,9,1,1.8504502000287173,1.0,3.0840843666551843,1.9543510333218508,가,가
2026-05-28,syllable_top50,10,1,4.513479799963534,1.0,3.227023909986019,2.100073909986019,대,대
2026-05-28,syllable_top50,11,1,2.497874399996362,1.0,3.0731349299894646,2.0113649299894645,지,지
2026-05-28,syllable_top50,12,1,3.216284700087272,1.0,3.103161599999294,2.0964815999992936,중,중
2026-05-28,syllable_top50,13,1,3.269036200013943,1.0,2.974712610000279,1.9128726100002786,계,계
2026-05-28,syllable_top50,14,1,4.268722699955106,1.0,3.1582526099984536,1.9961826099984532,관,관
2026-05-28,syllable_top50,15,1,5.34314610005822,1.0,3.3890205200063064,2.2018005200063064,업,업
2026-05-28,syllable_top50,16,1,2.428752899984829,1.0,3.250458850013092,2.103368850013092,소,소
2026-05-28,syllable_top50,17,1,2.3060817000223324,1.0,3.222076800011564,2.0750268000115644,공,공
2026-05-28,syllable_top50,18,1,7.154809799976647,1.0,3.6848638500086963,2.5478238500086965,내,내
2026-05-28,syllable_top50,19,1,2.059035299927928,1.0,3.7057223599986173,2.5686423599986172,수,수
2026-05-28,syllable_top50,20,1,2.7985623000422493,1.0,3.534230610006489,2.427220610006489,보,보
2026-05-28,syllable_top50,21,1,2.996198699926026,1.0,3.5840630399994553,2.4219130399994553,개,개
2026-05-28,syllable_top50,22,1,1.6183509000111371,1.0,3.424269659991842,2.302249659991842,사,사
2026-05-28,syllable_top50,23,1,2.4546772999456152,1.0,3.342833769985009,2.331133769985009,비,비
2026-05-28,syllable_top50,24,1,3.3715918000089005,1.0,3.2531206799903885,2.3016306799903887,일,일
2026-05-28,syllable_top50,25,1,2.4034631999675184,1.0,2.9591523899813184,2.0076723899813183,동,동
2026-05-28,syllable_top50,26,1,3.4251903999829665,1.0,3.058796139981132,2.067256139981132,선,선
2026-05-28,syllable_top50,27,1,1.9153587999753652,1.0,3.0197238499764354,2.0682338499764352,서,서
2026-05-28,syllable_top50,28,0,2.627752500004135,0.9,2.567018119979184,1.645598119979184,도,소
2026-05-28,syllable_top50,29,1,1.4084341999841854,0.9,2.50195800998481,1.5805980099848098,오,오
2026-05-28,syllable_top50,30,1,2.200205400004052,0.9,2.44212231998099,1.4806723199809901,국,국
2026-05-28,syllable_top50,31,1,2.032005300046876,0.9,2.3457029799930753,1.4142629799930753,주,주
2026-05-28,syllable_top50,32,1,1.8305926999310032,0.9,2.3669271599850616,1.4605771599850617,기,기
2026-05-28,syllable_top50,33,1,1.9449517000466583,0.9,2.315954599995166,1.384514599995166,자,자
2026-05-28,syllable_top50,34,1,4.167959299986251,0.9,2.395591349992901,1.403811349992901,경,경
2026-05-28,syllable_top50,35,1,3.101321000023745,0.9,2.4653771299985237,1.4887071299985237,의,의
2026-05-28,syllable_top50,36,1,3.1533178000245243,0.9,2.4381898700026796,1.4714698700026794,위,위
2026-05-28,syllable_top50,37,0,4.933322100085206,0.8,2.7399862000136634,1.7232562000136635,회,혼
2026-05-28,syllable_top50,38,1,5.544680299935862,0.9,3.0316789800068364,1.9699389800068363,있,있
2026-05-28,syllable_top50,39,1,3.3833049000240862,0.9,3.2291660500108263,2.1673660500108265,구,구
2026-05-28,syllable_top50,40,1,1.9971968999598173,0.9,3.208865200006403,2.212225200006403,시,시
2026-05-28,syllable_top50,41,1,2.9569734999677166,0.9,3.301362019998487,2.264722019998487,전,전
2026-05-28,syllable_top50,42,1,2.2634364999830723,0.9,3.344646400003694,2.282916400003694,아,아
2026-05-28,syllable_top50,43,1,5.644729900057428,0.9,3.714624220004771,2.6178942200047706,등,등
2026-05-28,syllable_top50,44,1,2.3928749000187963,0.9,3.5371157800080253,2.5356557800080255,나,나
2026-05-28,syllable_top50,45,1,2.3480134999845177,0.9,3.4617850300041026,2.4852450300041027,부,부
2026-05-28,syllable_top50,46,1,3.155959499999881,0.9,3.4620492000016383,2.495599200001638,하,하
2026-05-28,syllable_top50,47,1,1.7469922000309452,1.0,3.143416209996212,2.2270162099962123,고,고
2026-05-28,syllable_top50,48,1,2.0805194000713527,1.0,2.7970001200097614,1.9506801200097612,이,이
2026-05-28,syllable_top50,49,1,2.7929311000043526,1.0,2.737962740007788,1.8515927400077878,상,상
2026-05-28,syllable_top50,50,1,4.810850600013509,1.0,3.019328110013157,2.112958110013157,리,리
2026-06-02,all_consonants,1,1,1.1164718000218272,1.0,1.1164718000218272,0.9664718000218272,ㅅ,ㅅ
2026-06-02,all_consonants,2,1,1.4811893999576569,1.0,1.298830599989742,1.048830599989742,ㅎ,ㅎ
2026-06-02,all_consonants,3,0,1.8705537000205368,0.6666666666666666,1.4894049666666735,1.2060716333333403,ㅍ,ㄱ
2026-06-02,all_consonants,4,1,1.744048499967903,0.75,1.553065849991981,1.227890849991981,ㅉ,ㅉ
2026-06-02,all_consonants,5,1,0.9682244998402894,0.8,1.4360975799616427,1.0859375799616426,ㄸ,ㄸ
2026-06-02,all_consonants,6,1,1.402841500006616,0.8333333333333334,1.4305548999691382,1.080421566635805,ㅌ,ㅌ
2026-06-02,all_consonants,7,1,1.2032359999138862,0.8571428571428571,1.3980807713898165,1.0335950571041022,ㅃ,ㅃ
2026-06-02,all_consonants,8,1,0.9346500001847744,0.875,1.3401519249891862,1.0024769249891863,ㄱ,ㄱ
2026-06-02,all_consonants,9,1,1.024243599968031,0.8888888888888888,1.3050509999868356,0.9548621110979467,ㄲ,ㄲ
2026-06-02,all_consonants,10,1,1.003652799874544,0.9,1.2749111799756065,0.9247411799756066,ㄹ,ㄹ
2026-06-02,all_consonants,11,1,2.017606799956411,0.9,1.3650246799690648,1.014854679969065,ㅈ,ㅈ
2026-06-02,all_consonants,12,1,0.7144472000654787,0.9,1.288350459979847,0.958180459979847,ㅇ,ㅇ
2026-06-02,all_consonants,13,1,0.8526908999774605,1.0,1.1865641799755395,0.8763941799755394,ㄴ,ㄴ
2026-06-02,all_consonants,14,1,1.0575739999767393,1.0,1.117916729976423,0.8378167299764231,ㅂ,ㅂ
2026-06-02,all_consonants,15,1,0.9460593999829144,1.0,1.1157002199906856,0.8656102199906857,ㄷ,ㄷ
2026-06-02,all_consonants,16,0,0.9234080000314862,0.9,1.0677568699931725,0.8176668699931724,ㅋ,ㄲ
2026-06-02,all_consonants,17,1,1.3848383999429643,0.9,1.0859171099960805,0.8458871099960804,ㅁ,ㅁ
2026-06-02,all_consonants,18,1,1.0585723998956382,0.9,1.0983093499671668,0.8282393499671669,ㅆ,ㅆ
2026-06-02,all_consonants,19,1,1.8191845999099316,0.9,1.1778034499613568,0.9177634499613567,ㅊ,ㅊ
2026-06-02,all_consonants,20,1,1.144849100150168,0.9,1.191923079988919,0.921873079988919,ㄸ,ㄸ
2026-06-02,all_consonants,21,1,1.113591199973598,0.9,1.1015215199906379,0.8114715199906378,ㅌ,ㅌ
2026-06-02,all_consonants,22,1,2.081918800016865,0.9,1.2382686799857765,0.9282186799857766,ㅊ,ㅊ
2026-06-02,all_consonants,23,1,1.2042004000395536,0.9,1.2734196299919858,0.9633696299919858,ㅇ,ㅇ
2026-06-02,all_consonants,24,1,0.9955453998409212,0.9,1.267216769978404,0.9571667699784039,ㄷ,ㄷ
2026-06-02,all_consonants,25,1,1.4146996000781655,0.9,1.3140807899879292,1.004030789987929,ㅂ,ㅂ
2026-06-02,all_consonants,26,1,2.253085100091994,1.0,1.4470484999939799,1.13699849999398,ㅍ,ㅍ
2026-06-02,all_consonants,27,1,1.1432711998932064,1.0,1.4228917799890042,1.102801779989004,ㅆ,ㅆ
2026-06-02,all_consonants,28,1,1.054012899985537,1.0,1.422435829997994,1.1023558299979939,ㄲ,ㄲ
2026-06-02,all_consonants,29,1,1.03231309982948,1.0,1.343748679989949,1.0236686799899488,ㅋ,ㅋ
2026-06-02,all_consonants,30,1,0.8149091999512166,1.0,1.3107546899700537,1.0206846899700535,ㄱ,ㄱ
2026-06-02,all_consonants,31,1,1.0858488001395017,1.0,1.307980449986644,1.007840449986644,ㅉ,ㅉ
2026-06-02,all_consonants,32,1,0.937402999959886,1.0,1.193528869980946,0.8933888699809461,ㄹ,ㄹ
2026-06-02,all_consonants,33,1,0.9936383999884127,1.0,1.172472669975832,0.8523326699758321,ㅁ,ㅁ
2026-06-02,all_consonants,34,1,1.0261319999117404,1.0,1.175531329982914,0.8553913299829139,ㅅ,ㅅ
2026-06-02,all_consonants,35,1,1.7752909001428634,1.0,1.2115904599893839,0.8714504599893838,ㅎ,ㅎ
2026-06-02,all_consonants,36,1,1.656995200086385,1.0,1.151981469988823,0.831841469988823,ㅈ,ㅈ
2026-06-02,all_consonants,37,1,1.3124310998246074,1.0,1.168897459981963,0.878797459981963,ㄴ,ㄴ
2026-06-02,all_consonants,38,1,1.1217235999647528,1.0,1.1756685299798846,0.8855385299798847,ㅃ,ㅃ
2026-06-02,all_consonants,39,1,1.375751999905333,1.0,1.21001241998747,0.91988241998747,ㅊ,ㅊ
2026-06-02,all_consonants,40,1,0.9967197000514716,1.0,1.2281934699974955,0.9380634699974955,ㅅ,ㅅ
2026-06-02,all_consonants,41,1,0.9039251999929548,1.0,1.2100011099828407,0.9499411099828408,ㄱ,ㄱ
2026-06-02,all_consonants,42,1,1.534872200107202,1.0,1.2697480299975723,1.0096880299975723,ㅁ,ㅁ
2026-06-02,all_consonants,43,1,0.9937462999951094,1.0,1.269758819998242,1.029698819998242,ㅇ,ㅇ
2026-06-02,all_consonants,44,1,1.23321589990519,1.0,1.290467209997587,1.020337209997587,ㅉ,ㅉ
2026-06-02,all_consonants,45,1,1.0541725000366569,1.0,1.2183553699869663,0.9382153699869662,ㄸ,ㄸ
2026-06-02,all_consonants,46,1,1.864054899895564,1.0,1.239061339967884,0.9389213399678841,ㅍ,ㅍ
2026-06-02,all_consonants,47,1,0.8825141999404877,1.0,1.196069649979472,0.8658996499794721,ㄲ,ㄲ
2026-06-02,all_consonants,48,1,1.4542595997918395,1.0,1.229323249962181,0.8991732499621807,ㅆ,ㅆ
2026-06-02,all_consonants,49,1,1.3272179001942277,1.0,1.2244698399910703,0.9143198399910704,ㅂ,ㅂ
2026-06-02,all_consonants,50,1,0.935863499995321,1.0,1.2183842199854553,0.8882342199854554,ㄹ,ㄹ
2026-06-02,all_consonants,51,1,2.198149099946022,1.0,1.347806609980762,0.997656609980762,ㅎ,ㅎ
2026-06-02,all_consonants,52,1,1.0241091998759655,1.0,1.2967303099576384,0.9665803099576383,ㄴ,ㄴ
2026-06-02,all_consonants,53,1,2.4038233999162912,1.0,1.4377380199497565,1.0775280199497566,ㅃ,ㅃ
2026-06-02,all_consonants,54,1,1.3954235999844968,1.0,1.4539587899576873,1.1038187899576872,ㅌ,ㅌ
2026-06-02,all_vowels,1,1,1.6539111000020057,1.0,1.6539111000020057,0.7020111000020056,ㅛ,ㅛ
2026-06-02,all_vowels,2,1,1.534482599934563,1.0,1.5941968499682844,0.7674468499682843,ㅔ,ㅔ
2026-06-02,all_vowels,3,1,1.8038835998158904,1.0,1.6640924332508196,0.7952924332508197,ㅝ,ㅝ
2026-06-02,all_vowels,4,1,1.5343768000602722,1.0,1.6316635249531828,0.8046135249531827,ㅟ,ㅟ
2026-06-02,all_vowels,5,0,1.623552700038999,0.8,1.630041359970346,0.7778613599703461,ㅕ,ㅖ
2026-06-02,all_vowels,6,1,1.8335416000336409,0.8333333333333334,1.663958066647562,0.8869247333142285,ㅜ,ㅜ
2026-06-02,all_vowels,7,1,1.2040823998395354,0.8571428571428571,1.5982615428178437,0.8749329713892724,ㅓ,ㅓ
2026-06-02,all_vowels,8,1,1.6232019001618028,0.875,1.6013790874858387,0.8493290874858387,ㅠ,ㅠ
2026-06-02,all_vowels,9,1,1.7752418001182375,0.8888888888888888,1.6206971666672163,0.8742749444449941,ㅐ,ㅐ
2026-06-02,all_vowels,10,1,1.6830390999093652,0.9,1.6269313599914312,0.8599413599914312,ㅘ,ㅘ
2026-06-02,all_vowels,11,1,2.015612999908626,0.9,1.6631015499820934,0.9211815499820932,ㅚ,ㅚ
2026-06-02,all_vowels,12,1,1.864207700127736,0.9,1.6960740600014106,0.8989940600014105,ㅖ,ㅖ
2026-06-02,all_vowels,13,1,1.2336320001631975,0.9,1.6390489000361412,0.9222589000361413,ㅣ,ㅣ
2026-06-02,all_vowels,14,1,1.5041549000889065,0.9,1.6360267100390047,0.9243667100390047,ㅢ,ㅢ
2026-06-02,all_vowels,15,1,1.8937131999991836,1.0,1.663042760035023,0.921372760035023,ㅒ,ㅒ
2026-06-02,all_vowels,16,1,1.563356899889186,1.0,1.6360242900205777,0.8392542900205777,ㅑ,ㅑ
2026-06-02,all_vowels,17,1,1.184620999963954,1.0,1.6340781500330195,0.8373281500330195,ㅏ,ㅏ
2026-06-02,all_vowels,18,1,1.2043437999673188,1.0,1.5921923400135711,0.850682340013571,ㅗ,ㅗ
2026-06-02,all_vowels,19,1,1.4899929000530392,1.0,1.5636674500070513,0.8572974500070512,ㅡ,ㅡ
2026-06-02,all_vowels,20,1,2.043853099923581,1.0,1.599748850008473,0.8632688500084728,ㅖ,ㅖ
2026-06-02,all_vowels,21,1,1.1180781999137253,1.0,1.5099953700089828,0.8035253700089827,ㅓ,ㅓ
2026-06-02,all_vowels,22,1,0.994509399868548,1.0,1.423025539983064,0.8017455399830637,ㅜ,ㅜ
2026-06-02,all_vowels,23,1,0.8152589998207986,1.0,1.3811882399488242,0.7047482399488241,ㅔ,ㅔ
2026-06-02,all_vowels,24,1,0.9344717001076788,1.0,1.3242199199507014,0.6978299199507012,ㅣ,ㅣ
2026-06-02,all_vowels,25,1,1.766576699912548,1.0,1.3115062699420377,0.7151262699420377,ㅕ,ㅕ
2026-06-02,all_vowels,26,1,1.4579682999756187,1.0,1.300967409950681,0.7046274099506811,ㅛ,ㅛ
2026-06-02,all_vowels,27,1,1.628357700072229,1.0,1.3453410799615084,0.7189710799615086,ㅚ,ㅚ
2026-06-02,all_vowels,28,1,1.204349699895829,1.0,1.3453416699543594,0.6939916699543595,ㅢ,ㅢ
2026-06-02,all_vowels,29,1,1.5378183000721035,1.0,1.350124209956266,0.638564209956266,ㅘ,ㅘ
2026-06-02,all_vowels,30,0,1.0313969000708312,0.9,1.248878589970991,0.5924985899709909,ㅐ,ㅏ
2026-06-02,all_vowels,31,1,1.2952336999587717,0.9,1.2665941399754956,0.6153241399754956,ㅡ,ㅡ
2026-06-02,all_vowels,32,1,1.0545471999794245,0.9,1.2725979199865833,0.6213879199865833,ㅗ,ㅗ
2026-06-02,all_vowels,33,1,0.9718399001285434,0.9,1.2882560100173577,0.6671160100173578,ㅏ,ㅏ
2026-06-02,all_vowels,34,1,1.7747571000363678,0.9,1.3722845500102268,0.6708545500102268,ㅝ,ㅝ
2026-06-02,all_vowels,35,1,1.743204299826175,0.9,1.3699473100015893,0.6685573100015894,ㅑ,ㅑ
2026-06-02,all_vowels,36,1,2.47286510001868,0.9,1.4714369900058955,0.7399569900058955,ㅒ,ㅒ
2026-06-02,all_vowels,37,1,1.9233552999794483,0.9,1.5009367499966175,0.7693967499966174,ㅟ,ㅟ
2026-06-02,all_vowels,38,1,1.48344809981063,0.9,1.5288465899880976,0.7670465899880975,ㅠ,ㅠ
2026-06-02,all_vowels,39,1,1.120262699900195,0.9,1.4870910299709066,0.8055010299709068,ㅣ,ㅣ
2026-06-02,all_vowels,40,1,1.2360485000535846,1.0,1.507556189969182,0.8559961899691821,ㅓ,ㅓ
2026-06-02,all_vowels,41,1,1.594491699943319,1.0,1.5374819899676369,0.8256519899676368,ㅕ,ㅕ
2026-06-02,all_vowels,42,1,1.448449800023809,1.0,1.5768722499720753,0.8098022499720752,ㅠ,ㅠ
2026-06-02,all_vowels,43,1,1.71493720007129,1.0,1.6511819799663499,0.8540819799663499,ㅚ,ㅚ
2026-06-02,all_vowels,44,1,2.102619600016624,1.0,1.6839682299643755,0.8568382299643755,ㅖ,ㅖ
2026-06-02,all_vowels,45,1,1.1780373000074178,1.0,1.6274515299824999,0.8554215299824998,ㅜ,ㅜ
2026-06-02,all_vowels,46,1,1.2090922999195757,1.0,1.5010742499725895,0.7892742499725893,ㅢ,ㅢ
2026-06-02,all_vowels,47,1,1.903183500049636,1.0,1.499057069979608,0.787297069979608,ㅐ,ㅐ
2026-06-02,all_vowels,48,1,2.0759906000457704,1.0,1.558311320003122,0.816581320003122,ㅒ,ㅒ
2026-06-02,all_vowels,49,0,1.123799999943003,0.9,1.5586650500074029,0.761775050007403,ㅔ,ㅓ
2026-06-02,all_vowels,50,1,1.5374355998355895,0.9,1.5888037599856033,0.7368137599856033,ㅘ,ㅘ
2026-06-02,all_vowels,51,1,1.05490170000121,0.9,1.5348447599913926,0.7380347599913925,ㅏ,ㅏ
2026-06-02,all_vowels,52,1,0.9581891000270844,0.9,1.48581868999172,0.71413868999172,ㅟ,ㅟ
2026-06-02,all_vowels,53,1,1.684162899851799,0.9,1.4827412599697711,0.6858912599697709,ㅝ,ㅝ
2026-06-02,all_vowels,54,1,1.4838175000622869,0.9,1.4208610499743373,0.6541410499743371,ㅛ,ㅛ
2026-06-02,all_vowels,55,1,1.23218910000287,0.9,1.4262762299738825,0.6646862299738824,ㅡ,ㅡ
2026-06-02,all_vowels,56,1,1.095475799869746,0.9,1.4149145799688996,0.6783045799688994,ㅗ,ㅗ
2026-06-02,all_vowels,57,1,1.414660600014031,0.9,1.366062289965339,0.604362289965339,ㅑ,ㅑ
2026-06-02,all_vowels,58,1,1.6310175000689924,0.9,1.3215649799676612,0.6149849799676612,ㅔ,ㅔ
2026-06-02,all_vowels,59,1,0.9942171000875532,1.0,1.3086066899821163,0.6321166899821161,ㅗ,ㅗ
2026-06-02,all_vowels,60,1,1.633837099885568,1.0,1.3182468399871141,0.6416768399871141,ㅝ,ㅝ
2026-06-02,all_vowels,61,1,0.93221680005081,1.0,1.305978349992074,0.654498349992074,ㅣ,ㅣ
2026-06-02,all_vowels,62,1,1.5069295999128371,1.0,1.3608523999806494,0.6843223999806494,ㅑ,ㅑ
2026-06-02,all_vowels,63,1,1.4555641000624746,1.0,1.3379925200017169,0.6614825200017169,ㅕ,ㅕ
2026-06-02,all_vowels,64,1,1.265673000132665,1.0,1.3161780700087546,0.6947480700087547,ㅓ,ㅓ
2026-06-02,all_vowels,65,1,1.653750899946317,1.0,1.3583342500030995,0.7017842500030994,ㅚ,ㅚ
2026-06-02,all_vowels,66,1,2.223936000140384,1.0,1.4711802700301633,0.7594902700301633,ㅘ,ㅘ
2026-06-02,all_vowels,67,1,1.0959078001324087,1.0,1.439304990042001,0.782754990042001,ㅏ,ㅏ
2026-06-02,all_vowels,68,1,1.443930400069803,1.0,1.4205962800420822,0.7390162800420821,ㅛ,ㅛ
2026-06-02,all_vowels,69,1,1.6589942001737654,1.0,1.4870739900507033,0.7753839900507032,ㅟ,ㅟ
2026-06-02,all_vowels,70,1,1.83644640003331,1.0,1.5073349200654775,0.7656149200654775,ㅖ,ㅖ
2026-06-02,all_vowels,71,1,1.576254399958998,1.0,1.5717386800562962,0.7748786800562962,ㅐ,ㅐ
2026-06-02,all_vowels,72,1,1.5098234999459237,1.0,1.572028070059605,0.7750880700596048,ㅠ,ㅠ
2026-06-02,all_vowels,73,0,1.5036657999735326,0.9,1.5768382400507108,0.7498882400507106,ㅒ,ㅑ
2026-06-02,all_vowels,74,1,1.33621839992702,0.9,1.5838927800301463,0.7320027800301462,ㅢ,ㅢ
2026-06-02,all_vowels,75,1,1.1686118999496102,0.9,1.5353788800304755,0.7134788800304755,ㅜ,ㅜ
2026-06-02,all_vowels,76,1,1.3561960000079123,0.9,1.4486048800172284,0.6869148800172284,ㅡ,ㅡ
2026-06-02,basic_consonants,1,1,1.2401197000872344,1.0,1.2401197000872344,1.0901197000872345,ㅅ,ㅅ
2026-06-02,basic_consonants,2,1,0.66532769985497,1.0,0.9527236999711022,0.8027236999711023,ㄱ,ㄱ
2026-06-02,basic_consonants,3,1,0.6372255000751466,1.0,0.8475576333391169,0.6975576333391169,ㄷ,ㄷ
2026-06-02,basic_consonants,4,1,1.3941842999774965,1.0,0.9842142999987118,0.8342142999987119,ㅈ,ㅈ
2026-06-02,basic_consonants,5,1,1.057588400086388,1.0,0.9988891200162471,0.8488891200162471,ㅇ,ㅇ
2026-06-02,basic_consonants,6,1,2.2757459999993443,1.0,1.21169860001343,1.0616986000134299,ㅂ,ㅂ
2026-06-02,basic_consonants,7,1,0.8781856000423431,1.0,1.164053885731846,1.0140538857318462,ㄴ,ㄴ
2026-06-02,basic_consonants,8,1,0.9049031999893486,1.0,1.131660050014034,0.9816600500140339,ㅈ,ㅈ
2026-06-02,basic_consonants,9,1,0.7765842000953853,1.0,1.0922071778008506,0.9422071778008507,ㅇ,ㅇ
2026-06-02,basic_consonants,10,1,0.5756434998475015,1.0,1.0405508100055159,0.8905508100055158,ㄴ,ㄴ
2026-06-02,basic_consonants,11,1,0.9355105001013726,1.0,1.0100898900069297,0.8600898900069296,ㅅ,ㅅ
2026-06-02,basic_consonants,12,0,1.7736601000651715,0.9,1.1209231300279499,0.9709231300279498,ㅂ,ㄱ
2026-06-02,basic_consonants,13,1,0.8156582000665367,0.9,1.1387664000270887,0.9887664000270888,ㄱ,ㄱ
2026-06-02,basic_consonants,14,1,0.8733632999937981,0.9,1.086684300028719,0.936684300028719,ㄷ,ㄷ
2026-06-02,basic_consonants,15,1,0.6942482001613826,0.9,1.0503502800362186,0.9003502800362184,ㄴ,ㄴ
2026-06-02,basic_consonants,16,1,1.063187399879098,0.9,0.9290944200241938,0.7790944200241939,ㅅ,ㅅ
2026-06-02,basic_consonants,17,1,0.8445896999910474,0.9,0.9257348300190642,0.7757348300190643,ㄷ,ㄷ
2026-06-02,basic_consonants,18,1,1.3541903998702765,0.9,0.970663550007157,0.8206635500071571,ㅈ,ㅈ
2026-06-02,basic_consonants,19,1,0.7246784998569638,0.9,0.9654729799833148,0.8154729799833149,ㄱ,ㄱ
2026-06-02,basic_consonants,20,1,1.684938999824226,0.9,1.0764025299809874,0.9264025299809873,ㅂ,ㅂ
2026-06-02,basic_consonants,21,1,0.6658636000938714,0.9,1.049437839980237,0.8994378399802372,ㅇ,ㅇ
2026-06-02,basic_consonants,22,1,0.9346480998210608,1.0,0.9655366399558261,0.8155366399558261,ㄷ,ㄷ
2026-06-02,basic_consonants,23,1,0.9346946000587196,1.0,0.9774402799550443,0.8274402799550444,ㅈ,ㅈ
2026-06-02,basic_consonants,24,1,1.0243530001025647,1.0,0.992539249965921,0.842539249965921,ㄴ,ㄴ
2026-06-02,basic_consonants,25,1,1.2382926000282168,1.0,1.0469436899526046,0.8969436899526044,ㅂ,ㅂ
2026-06-02,basic_consonants,26,1,1.2412457999307662,1.0,1.0647495299577714,0.9147495299577713,ㅅ,ㅅ
2026-06-02,basic_vowels,1,1,0.9192278000991791,1.0,0.9192278000991791,0.5185278000991791,ㅗ,ㅗ
2026-06-02,basic_vowels,2,1,0.8438897000160068,1.0,0.881558750057593,0.48075875005759294,ㅏ,ㅏ
2026-06-02,basic_vowels,3,1,1.0240569999441504,1.0,0.9290581666864455,0.5281581666864454,ㅓ,ㅓ
2026-06-02,basic_vowels,4,1,1.4742489999625832,1.0,1.06535587500548,0.7271808750054799,ㅣ,ㅣ
2026-06-02,basic_vowels,5,1,1.123171400045976,1.0,1.0769189800135792,0.7363789800135792,ㅡ,ㅡ
2026-06-02,basic_vowels,6,1,0.9301927001215518,1.0,1.0524646000315745,0.7017979333649079,ㅜ,ㅜ
2026-06-02,basic_vowels,7,1,0.8972654999233782,1.0,1.0302933000161179,0.6724504428732608,ㅏ,ㅏ
2026-06-02,basic_vowels,8,1,1.000608199974522,1.0,1.0265826625109185,0.6633326625109185,ㅓ,ㅓ
2026-06-02,basic_vowels,9,1,1.0253494998905808,1.0,1.026445644441992,0.6589678666642143,ㅜ,ㅜ
2026-06-02,basic_vowels,10,1,3.830956199904904,1.0,1.3068966999882832,0.9611666999882832,ㅣ,ㅣ
2026-06-02,basic_vowels,11,1,0.998727299971506,1.0,1.3148466499755158,0.9691166499755159,ㅗ,ㅗ
2026-06-02,basic_vowels,12,1,1.0244214001577348,1.0,1.3328998199896887,0.9922598199896887,ㅡ,ㅡ
2026-06-02,complex_vowels,1,1,2.374157699989155,1.0,2.374157699989155,1.672557699989155,ㅔ,ㅔ
2026-06-02,complex_vowels,2,1,2.3438844999764115,1.0,2.359021099982783,1.6576210999827832,ㅚ,ㅚ
2026-06-02,complex_vowels,3,1,1.651420900132507,1.0,2.123154366699358,1.4216210333660246,ㅟ,ㅟ
2026-06-02,complex_vowels,4,1,1.9026604001410303,1.0,2.068030875059776,1.303855875059776,ㅘ,ㅘ
2026-06-02,complex_vowels,5,1,2.0673897999804467,1.0,2.0679026600439103,1.2059226600439101,ㅖ,ㅖ
2026-06-02,complex_vowels,6,1,2.3097529001533985,1.0,2.1082110333954915,1.2729943667288248,ㅐ,ㅐ
2026-06-02,complex_vowels,7,1,2.015235800063237,1.0,2.0949288572051694,1.2000574286337409,ㅒ,ㅒ
2026-06-02,complex_vowels,8,1,2.223837699973956,1.0,2.111042462551268,1.2089174625512678,ㅝ,ㅝ
2026-06-02,complex_vowels,9,1,2.1177259997930378,1.0,2.1117850778003535,1.17065174446702,ㅖ,ㅖ
2026-06-02,complex_vowels,10,1,2.312894399976358,1.0,2.131896010017954,1.1895860100179536,ㅝ,ㅝ
2026-06-02,complex_vowels,11,1,2.3743315001484007,1.0,2.1319133900338785,1.189643390033878,ㅚ,ㅚ
2026-06-02,complex_vowels,12,1,1.442967499839142,1.0,2.0418216900201513,1.0994916900201512,ㅟ,ㅟ
2026-06-02,complex_vowels,13,1,1.623420599848032,1.0,2.039021659991704,1.071661659991704,ㅘ,ㅘ
2026-06-02,complex_vowels,14,1,1.5347351001109928,1.0,2.0022291299887,1.0599191299887,ㅔ,ㅔ
2026-06-02,complex_vowels,15,1,1.8417886001989243,1.0,1.9796690100105478,1.037399010010548,ㅒ,ㅒ
2026-06-02,complex_vowels,16,1,1.443916899850592,1.0,1.8930854099802672,0.9508154099802673,ㅐ,ㅐ
2026-06-02,double_consonants,1,1,0.7729362000245601,1.0,0.7729362000245601,0.32263620002456,ㄲ,ㄲ
2026-06-02,double_consonants,2,1,0.90504390001297,1.0,0.838990050018765,0.388490050018765,ㅉ,ㅉ
2026-06-02,double_consonants,3,1,1.4234937999863178,1.0,1.0338246333412826,0.5834579666746159,ㄸ,ㄸ
2026-06-02,double_consonants,4,1,1.2065158998593688,1.0,1.0769974499708042,0.6266224499708042,ㅆ,ㅆ
2026-06-02,double_consonants,5,1,0.9682150001171976,1.0,1.055240960000083,0.6048209600000829,ㅃ,ㅃ
2026-06-02,double_consonants,6,1,1.3312230999581516,1.0,1.1012379833264276,0.650771316659761,ㅉ,ㅉ
2026-06-02,double_consonants,7,1,0.8994811000302434,1.0,1.0724155714269727,0.6219298571412585,ㅃ,ㅃ
2026-06-02,double_consonants,8,1,0.8141404998023063,1.0,1.0401311874738894,0.5896686874738895,ㄲ,ㄲ
2026-06-02,double_consonants,9,1,0.9312160999979824,1.0,1.0280295110876776,0.577573955532122,ㅆ,ㅆ
2026-06-02,double_consonants,10,1,0.7594413999468088,1.0,1.0011706999735908,0.5507506999735907,ㄸ,ㄸ
2026-06-02,double_vowels,1,1,1.8758323001675308,1.0,1.8758323001675308,1.2253323001675307,ㅢ,ㅢ
2026-06-02,double_vowels,2,1,1.570058299927041,1.0,1.7229453000472859,0.9211453000472858,ㅠ,ㅠ
2026-06-02,double_vowels,3,1,1.3779408000409603,1.0,1.6079438000451773,0.7561104667118439,ㅛ,ㅛ
2026-06-02,double_vowels,4,1,1.3544832998886704,1.0,1.5445786750060506,0.6676286750060506,ㅑ,ㅑ
2026-06-02,double_vowels,5,1,1.313894100021571,1.0,1.4984417600091546,0.6063417600091546,ㅕ,ㅕ
2026-06-02,double_vowels,6,1,1.2039694997947663,1.0,1.4493630499734234,0.5471630499734232,ㅕ,ㅕ
2026-06-02,double_vowels,7,1,1.233078199904412,1.0,1.4184652142492788,0.5522223571064216,ㅢ,ㅢ
2026-06-02,double_vowels,8,1,1.2645890999119729,1.0,1.3992306999571156,0.5222306999571156,ㅑ,ㅑ
2026-06-02,double_vowels,9,1,1.263198599917814,1.0,1.3841160221749709,0.49866046661941543,ㅠ,ㅠ
2026-06-02,double_vowels,10,1,1.3535496999975294,1.0,1.3810593899572268,0.48895938995722676,ㅛ,ㅛ
2026-06-02,long_consonants,1,1,1.2397819000761956,1.0,1.2397819000761956,0.8897819000761956,ㅊ,ㅊ
2026-06-02,long_consonants,2,1,1.1436375000048429,1.0,1.1917097000405192,0.8417097000405193,ㅁ,ㅁ
2026-06-02,long_consonants,3,1,1.1745241999160498,1.0,1.1859811999990295,0.8359811999990295,ㅋ,ㅋ
2026-06-02,long_consonants,4,1,0.9941809999290854,1.0,1.1380311499815434,0.7880311499815434,ㄹ,ㄹ
2026-06-02,long_consonants,5,1,0.9654496998991816,1.0,1.103514859965071,0.7535148599650711,ㅌ,ㅌ
2026-06-02,long_consonants,6,0,2.524108299985528,0.8333333333333334,1.340280433301814,0.9902804333018139,ㅎ,ㅍ
2026-06-02,long_consonants,7,1,1.7903195000253618,0.8571428571428571,1.404571728548035,1.054571728548035,ㅍ,ㅍ
2026-06-02,long_consonants,8,1,0.941330200061202,0.875,1.346666537487181,0.9966665374871809,ㅁ,ㅁ
2026-06-02,long_consonants,9,1,1.3150827998761088,0.8888888888888888,1.343157233308173,0.9931572333081728,ㅎ,ㅎ
2026-06-02,long_consonants,10,1,1.2010729999747127,0.9,1.3289488099748268,0.9789488099748269,ㅍ,ㅍ
2026-06-02,long_consonants,11,1,0.9041518999729306,0.9,1.2953858099645004,0.9453858099645004,ㄹ,ㄹ
2026-06-02,long_consonants,12,1,0.9945859001018108,0.9,1.2804806499741972,0.9304806499741971,ㅌ,ㅌ
2026-06-02,long_consonants,13,1,1.2950484999455512,0.9,1.2925330799771473,0.9425330799771473,ㅊ,ㅊ
2026-06-02,long_consonants,14,0,1.058171199867502,0.8,1.298932099970989,0.9489320999709889,ㅋ,ㅌ
2026-06-02,long_consonants,15,1,1.4982211000751704,0.8,1.3522092399885879,1.0022092399885878,ㅍ,ㅍ
2026-06-02,long_consonants,16,1,1.033870100043714,0.9,1.2031854199944063,0.8531854199944064,ㅎ,ㅎ
2026-06-02,long_consonants,17,1,0.9637588998302816,0.9,1.1205293599748984,0.7705293599748984,ㅊ,ㅊ
2026-06-02,long_consonants,18,1,1.6553060000296682,0.9,1.191926939971745,0.8419269399717451,ㅁ,ㅁ
2026-06-02,long_consonants,19,1,0.831595900002867,0.9,1.143578249984421,0.7935782499844208,ㅋ,ㅋ
2026-06-02,long_consonants,20,1,0.6427184999920428,0.9,1.0877427999861538,0.7377427999861539,ㄹ,ㄹ
2026-06-02,long_consonants,21,1,0.6240101999137551,0.9,1.0597286299802362,0.7097286299802362,ㅌ,ㅌ
2026-06-02,long_consonants,22,1,2.7120701998937875,0.9,1.231477059959434,0.8814770599594339,ㅁ,ㅁ
2026-06-02,long_consonants,23,1,1.0847787000238895,0.9,1.2104500799672677,0.8604500799672679,ㅍ,ㅍ
2026-06-02,long_consonants,24,1,1.3027976998127997,1.0,1.2349127299617977,0.8849127299617976,ㅎ,ㅎ
2026-06-02,long_consonants,25,1,1.070624299813062,1.0,1.1921530499355868,0.8421530499355867,ㅊ,ㅊ
2026-06-02,long_consonants,26,1,0.9788444000296296,1.0,1.1866504799341784,0.8366504799341783,ㅋ,ㅋ
2026-06-02,long_consonants,27,1,0.8770705000497401,1.0,1.177981639956124,0.8279816399561242,ㄹ,ㄹ
2026-06-02,long_consonants,28,1,0.8109190000686795,1.0,1.0935429399600252,0.7435429399600253,ㅌ,ㅌ
2026-06-02,syllable_top100,1,1,3.214246300049126,1.0,3.214246300049126,2.062846300049126,등,등
2026-06-02,syllable_top100,2,1,2.404389299917966,1.0,2.809317799983546,1.6324677999835462,장,장
2026-06-02,syllable_top100,3,1,3.843699700199068,1.0,3.1541117667220533,1.9356451000553865,회,회
2026-06-02,syllable_top100,4,1,2.523301800014451,1.0,2.9964092750451528,1.7820342750451528,공,공
2026-06-02,syllable_top100,5,1,2.2836187998764217,1.0,2.8538511800114064,1.6419911800114064,전,전
2026-06-02,syllable_top100,6,1,2.1467741997912526,1.0,2.7360050166413807,1.5925883499747142,오,오
2026-06-02,syllable_top100,7,1,2.585234500002116,1.0,2.7144663714072004,1.4981520856929145,계,계
2026-06-02,syllable_top100,8,0,3.991188099840656,0.875,2.874056587461382,1.5906065874613822,년,눤
2026-06-02,syllable_top100,9,1,1.2384935000445694,0.8888888888888888,2.6923273555261806,1.4179717999706252,산,산
2026-06-02,syllable_top100,10,1,2.00329319993034,0.9,2.623423939966597,1.3763239399665967,후,후
2026-06-02,syllable_top100,11,1,1.4843999999575317,0.9,2.4504393099574373,1.2382993099574373,우,우
2026-06-02,syllable_top100,12,1,1.38398059993051,0.9,2.3483984399586917,1.1180903799656405,연,연
2026-06-02,syllable_top100,13,1,1.2603123001754284,0.9,2.0900596999563277,0.9097816399632765,사,사
2026-06-02,syllable_top100,14,0,3.394328200025484,0.8,2.177162339957431,1.00690427996438,대,닷
2026-06-02,syllable_top100,15,1,3.141937999986112,0.8,2.2629942599684,1.1027061999753491,제,제
2026-06-02,syllable_top100,16,1,1.9915058999322357,0.8,2.2474674299824984,1.0722293699894472,인,인
2026-06-02,syllable_top100,17,1,1.6014984999783335,0.8,2.14909382998012,1.059085769987069,아,아
2026-06-02,syllable_top100,18,1,1.781736700097099,0.9,1.9281486900057643,0.9333406300127134,자,자
2026-06-02,syllable_top100,19,0,1.9472918000537904,0.8,1.9990285200066864,1.0693304600136355,이,비
2026-06-02,syllable_top100,20,0,2.0386741999536757,0.7,2.00256662000902,1.0628385600159689,세,전
2026-06-02,syllable_top100,21,1,3.041827999986708,0.7,2.1583094200119377,1.1585313600188867,감,감
2026-06-02,syllable_top100,22,1,2.071170600131154,0.7,2.227028420032002,1.2302884200320021,유,유
2026-06-02,syllable_top100,23,1,3.785787499975413,0.7,2.4795759400120003,1.4327859400120004,해,해
2026-06-02,syllable_top100,24,0,3.934887700015679,0.7,2.53363189001102,1.42162189001102,영,읭
2026-06-02,syllable_top100,25,1,2.64704760001041,0.7,2.4841428500134497,1.4072928500134496,치,치
2026-06-02,syllable_top100,26,1,2.4613119000568986,0.7,2.531123450025916,1.4942934500259162,지,지
2026-06-02,syllable_top100,27,1,1.8557414000388237,0.7,2.556547740031965,1.479627740031965,상,상
2026-06-02,syllable_top100,28,1,2.135453099850565,0.7,2.5919193800073117,1.4748893800073115,성,성
2026-06-02,syllable_top100,29,1,3.6358052999712527,0.8,2.760770729999058,1.5886007299990579,내,내
2026-06-02,syllable_top100,30,1,3.532029499998316,0.9,2.910106260003522,1.727946260003522,것,것
2026-06-02,syllable_top100,31,0,3.9971121000126,0.8,3.005634670006111,1.8686346700061112,신,오
2026-06-02,syllable_top100,32,0,1.7754948001820594,0.7,2.9760670900112016,1.8942670900112017,거,기
2026-06-02,syllable_top100,33,1,4.294798300135881,0.7,3.0269681700272484,1.8799481700272485,명,명
2026-06-02,syllable_top50,1,0,1.805553400190547,0.0,1.805553400190547,0.703653400190547,개,가
2026-06-02,syllable_top50,2,1,2.2244116000365466,0.5,2.014982500113547,1.0631325001135465,주,주
2026-06-02,syllable_top50,3,1,2.9434267999604344,0.6666666666666666,2.3244639333958426,1.4397306000625092,스,스
2026-06-02,syllable_top50,4,1,1.685869200155139,0.75,2.1648152500856668,1.3009652500856668,오,오
2026-06-02,syllable_top50,5,1,1.503603900084272,0.8,2.032572980085388,1.1811329800853878,구,구
2026-06-02,syllable_top50,6,1,3.4235556998755783,0.8333333333333334,2.264403433383753,1.3544867667170861,장,장
2026-06-02,syllable_top50,7,1,3.365037600044161,0.8571428571428571,2.421636885763811,1.4773226000495254,일,일
2026-06-02,syllable_top50,8,1,2.403227600036189,0.875,2.4193357250478584,1.4428107250478583,것,것
2026-06-02,syllable_top50,9,0,1.7855150999967009,0.7777777777777778,2.3489112111532853,1.3918001000421742,부,구
2026-06-02,syllable_top50,10,1,2.7732830999884754,0.8,2.3913484000368044,1.4096784000368043,중,중
2026-06-02,syllable_top50,11,1,1.3352089999243617,0.9,2.3443139600101857,1.3393130600177496,경,경
2026-06-02,syllable_top50,12,1,1.4454202998895198,0.9,2.266414829995483,1.286543930003047,지,지
2026-06-02,syllable_top50,13,1,5.497315399814397,0.9,2.5218036899808793,1.5067527899884432,위,위
2026-06-02,syllable_top50,14,1,2.4055401000659917,0.9,2.5937707799719645,1.6037898799795287,시,시
2026-06-02,syllable_top50,15,1,1.7951646998990327,0.9,2.6229268599534405,1.6330059599610045,도,도
2026-06-02,syllable_top50,16,0,4.08148349984549,0.8,2.688719639950432,1.698848739957996,전,제
2026-06-02,syllable_top50,17,1,3.1338029000908136,0.8,2.665596169955097,1.690655269962661,하,하
2026-06-02,syllable_top50,18,1,1.9922480001114309,0.8,2.6244982099626215,1.6896173099701852,나,나
2026-06-02,syllable_top50,19,1,3.784561999840662,0.9,2.8244028999470174,1.8594919999545811,제,제
2026-06-02,syllable_top50,20,1,3.174374700058252,0.9,2.864512059953995,1.904731159961559,등,등
2026-06-02,syllable_top50,21,1,3.2757098998408765,0.9,3.0585621499456463,2.1221121499456466,대,대
2026-06-02,syllable_top50,22,1,1.5992472998332232,0.9,3.073944849940017,2.1124048499400168,사,사
2026-06-02,syllable_top50,23,1,3.2694320001173764,0.9,2.851156509970315,1.8747165099703147,있,있
2026-06-02,syllable_top50,24,1,1.781338799977675,0.9,2.7887363799614833,1.812296379961483,기,기
2026-06-02,syllable_top50,25,1,2.2006675999145955,0.9,2.8292866699630395,1.8127366699630396,상,상
2026-06-02,syllable_top50,26,1,3.085840200074017,1.0,2.729722339985892,1.7131023399858922,정,정
2026-06-02,syllable_top50,27,1,6.431047699879855,1.0,3.0594468199647964,2.0127968199647963,회,회
2026-06-02,syllable_top50,28,1,2.644117600051686,1.0,3.1246337799588217,2.037943779958822,선,선
2026-06-02,syllable_top50,29,1,2.604756199987605,1.0,3.006653199973516,1.9751231999735162,비,비
2026-06-02,syllable_top50,30,1,2.2044331000652164,1.0,2.909659039974213,1.9131090399742123,서,서
2026-06-02,syllable_top50,31,1,2.166062999982387,1.0,2.798694349988364,1.8322143499883636,보,보
2026-06-02,syllable_top50,32,1,3.794322200119496,1.0,3.018201840016991,2.011641840016991,업,업
2026-06-02,syllable_top50,33,1,2.339472600026056,1.0,2.925205900007859,1.9235259000078586,성,성
2026-06-02,syllable_top50,34,1,2.0020719999447465,1.0,2.947279220004566,1.880439220004566,공,공
2026-06-02,syllable_top50,35,1,4.119906799867749,1.0,3.139203139999881,2.0824031399998812,내,내
2026-06-02,syllable_top50,36,1,1.970754300011322,1.0,3.027694549993612,2.0110245499936115,고,고
2026-06-02,syllable_top50,37,1,2.14451240003109,1.0,2.5990410200087353,1.632401020008735,아,아
2026-06-02,syllable_top50,38,1,1.5943291999865323,1.0,2.49406218000222,1.5674621800022197,자,자
2026-06-02,syllable_top50,39,1,2.72051510005258,1.0,2.5056380700087173,1.5289880700087175,의,의
2026-06-02,syllable_top50,40,1,2.193154999986291,1.0,2.504510260000825,1.5129502600008249,인,인
2026-06-02,syllable_top50,41,1,1.9531153999269009,1.0,2.4832154999952762,1.4915954999952763,수,수
2026-06-02,syllable_top50,42,1,4.05430019996129,1.0,2.509213299979456,1.4625332999794558,관,관
2026-06-02,syllable_top50,43,1,1.9827320000622424,1.0,2.4735392399830745,1.4268992399830744,동,동
2026-06-02,syllable_top50,44,1,2.0738995999563485,1.0,2.4807219999842345,1.4792419999842346,리,리
2026-06-02,syllable_top50,45,1,1.7441640000324696,1.0,2.2431477200007066,1.2968077200007064,이,이
2026-06-02,syllable_top50,46,1,1.8032754000741988,1.0,2.2263998300069945,1.2800598300069943,소,소
2026-06-02,syllable_top50,47,1,3.093699600081891,1.0,2.3213185500120743,1.2897485500120744,계,계
2026-06-02,syllable_top50,48,1,1.683086900040507,1.0,2.3301943200174717,1.2986243200174719,가,가
2026-06-02,syllable_top50,49,1,2.853497200179845,1.0,2.3434925300301983,1.2416625300301984,원,원
2026-06-02,syllable_top50,50,1,2.1335218001622707,1.0,2.3375292100477965,1.2105592100477964,국,국
2026-06-04,all_consonants,1,1,0.9468247001059352,1.0,0.9468247001059352,0.4964247001059353,ㅆ,ㅆ
2026-06-04,all_consonants,2,1,1.2038249999750406,1.0,1.075324850040488,0.7751248500404879,ㅈ,ㅈ
2026-06-04,all_consonants,3,1,1.042497399961576,1.0,1.0643823666808505,0.7475823666808505,ㅁ,ㅁ
2026-06-04,all_consonants,4,1,1.5618565999902785,1.0,1.1887509250082076,0.8636509250082075,ㅍ,ㅍ
2026-06-04,all_consonants,5,1,0.96593980002217,1.0,1.144188700011,0.794048700011,ㄲ,ㄲ
2026-06-04,all_consonants,6,1,0.7898899998981506,1.0,1.0851389166588585,0.7350222499921918,ㄹ,ㄹ
2026-06-04,all_consonants,7,1,0.9361574999056756,1.0,1.0638558571226895,0.7137558571226894,ㅌ,ㅌ
2026-06-04,all_consonants,8,1,1.1829850000794977,1.0,1.0787469999922905,0.7536594999922905,ㅂ,ㅂ
2026-06-04,all_consonants,9,1,1.6946065998636186,1.0,1.147175844422438,0.8193202888668825,ㅎ,ㅎ
2026-06-04,all_consonants,10,1,1.201684300089255,1.0,1.1526266899891198,0.8225566899891197,ㅋ,ㅋ
2026-06-04,all_consonants,11,1,1.1245367000810802,1.0,1.1703978899866343,0.8703678899866342,ㅅ,ㅅ
2026-06-04,all_consonants,12,1,1.0102037000469863,1.0,1.1510357599938288,0.8510057599938289,ㅇ,ㅇ
2026-06-04,all_consonants,13,1,1.443387100007385,1.0,1.1911247299984098,0.8810847299984097,ㄸ,ㄸ
2026-06-04,all_consonants,14,1,1.0644843999762088,1.0,1.1413875099970028,0.8212775099970028,ㅉ,ㅉ
2026-06-04,all_consonants,15,1,1.8435737998224797,1.0,1.2291509099770337,0.9090109099770338,ㅃ,ㅃ
2026-06-04,all_consonants,16,1,1.7218474999535829,1.0,1.322346659982577,1.0022066599825767,ㅊ,ㅊ
2026-06-04,all_consonants,17,1,0.9323640000075102,1.0,1.3219673099927605,1.0218273099927602,ㄷ,ㄷ
2026-06-04,all_consonants,18,1,0.8860962998587638,1.0,1.292278439970687,0.992138439970687,ㄴ,ㄴ
2026-06-04,all_consonants,19,1,0.7698629999067634,1.0,1.1998040799750016,0.9196640799750015,ㄱ,ㄱ
2026-06-04,all_consonants,20,1,1.835170099977404,1.0,1.2631526599638163,0.9830126599638163,ㅁ,ㅁ
2026-06-04,all_consonants,21,1,0.7236352998297662,1.0,1.223062519938685,0.942922519938685,ㄱ,ㄱ
2026-06-04,all_consonants,22,1,1.3465283999685198,1.0,1.2566949899308384,0.9765549899308382,ㅂ,ㅂ
2026-06-04,all_consonants,23,1,1.013131600106135,1.0,1.2136694399407133,0.9435394399407133,ㅌ,ㅌ
2026-06-04,all_consonants,24,1,0.7856022999621928,1.0,1.1857812299393118,0.9257212299393117,ㄹ,ㄹ
2026-06-04,all_consonants,25,1,1.933584000216797,1.0,1.1947822499787435,0.9447822499787435,ㅍ,ㅍ
2026-06-04,all_consonants,26,1,1.0153017998673022,1.0,1.1241276799701154,0.8741276799701154,ㅎ,ㅎ
2026-06-04,all_consonants,27,1,1.0248589999973774,1.0,1.1333771799691021,0.8833771799691021,ㅅ,ㅅ
2026-06-04,all_consonants,28,1,1.0979007999412715,1.0,1.154557629977353,0.8745176299773529,ㅆ,ㅆ
2026-06-04,all_consonants,29,1,1.1588447000831366,1.0,1.1934557999949902,0.8833557999949904,ㅃ,ㅃ
2026-06-04,all_consonants,30,1,0.7533030000049621,1.0,1.085269089997746,0.795169089997746,ㄴ,ㄴ
2026-06-04,all_consonants,31,1,0.9057153000030668,1.0,1.103477090015076,0.8133770900150761,ㄷ,ㄷ
2026-06-04,all_consonants,32,1,1.0838959000539037,1.0,1.0772138400236144,0.7570438400236145,ㅉ,ㅉ
2026-06-04,all_consonants,33,1,0.935297799995169,1.0,1.069430460012518,0.7492604600125178,ㅊ,ㅊ
2026-06-04,all_consonants,34,1,0.8750625001266599,1.0,1.0783764800289646,0.7782064800289646,ㅇ,ㅇ
2026-06-04,all_consonants,35,1,0.8754147998988628,1.0,0.9725595599971711,0.6623795599971711,ㄸ,ㄸ
2026-06-04,all_consonants,36,1,0.8930392998736352,1.0,0.9603333099978044,0.6401233099978045,ㄲ,ㄲ
2026-06-04,all_consonants,37,1,1.4138212001416832,1.0,0.999229530012235,0.679019530012235,ㅈ,ㅈ
2026-06-04,all_consonants,38,1,0.9890105000231416,1.0,0.9883405000204222,0.678170500020422,ㅋ,ㅋ
2026-06-04,all_vowels,1,1,1.4224884998984637,1.0,1.4224884998984637,0.7206884998984635,ㅟ,ㅟ
2026-06-04,all_vowels,2,1,1.4749066000804305,1.0,1.448697549989447,0.6217475499894469,ㅘ,ㅘ
2026-06-04,all_vowels,3,1,1.4738260998856276,1.0,1.4570737332881738,0.7891070666215071,ㅡ,ㅡ
2026-06-04,all_vowels,4,1,1.5635355999693274,1.0,1.4836891999584623,0.8074141999584622,ㅚ,ㅚ
2026-06-04,all_vowels,5,1,1.983690599910915,1.0,1.5836894799489527,0.7921094799489528,ㅒ,ㅒ
2026-06-04,all_vowels,6,1,1.8036905999761077,1.0,1.6203563332868118,0.8019229999534785,ㅕ,ㅕ
2026-06-04,all_vowels,7,1,1.6232273001223805,1.0,1.620766471406179,0.7831236142633217,ㅝ,ㅝ
2026-06-04,all_vowels,8,1,1.4737493998836726,1.0,1.6023893374658655,0.7881393374658655,ㅢ,ㅢ
2026-06-04,all_vowels,9,1,1.1748522999696434,1.0,1.5548852221885074,0.7865852221885076,ㅗ,ㅗ
2026-06-04,all_vowels,10,1,1.5080091999843717,1.0,1.550197619968094,0.763417619968094,ㅠ,ㅠ
2026-06-04,all_vowels,11,1,1.299479499924928,1.0,1.5378967199707403,0.7811667199707404,ㅜ,ㅜ
2026-06-04,all_vowels,12,1,1.6245341999456286,1.0,1.5528594799572601,0.7961494799572602,ㅛ,ㅛ
2026-06-04,all_vowels,13,1,1.1142724000383168,1.0,1.5169041099725291,0.7551041099725291,ㅏ,ㅏ
2026-06-04,all_vowels,14,1,1.473315800074488,1.0,1.5078821299830452,0.7460421299830451,ㅔ,ㅔ
2026-06-04,all_vowels,15,1,1.7441289001144469,1.0,1.4839259600033983,0.7220459600033984,ㅖ,ㅖ
2026-06-04,all_vowels,16,1,1.5037379001732916,1.0,1.4539306900231168,0.6920906900231169,ㅑ,ㅑ
2026-06-04,all_vowels,17,1,1.1165562998503449,1.0,1.4032635899959132,0.6966035899959132,ㅓ,ㅓ
2026-06-04,all_vowels,18,1,1.024205599911511,1.0,1.358309209998697,0.701699209998697,ㅣ,ㅣ
2026-06-04,all_vowels,19,1,1.3840292000677437,1.0,1.3792269000085071,0.692546900008507,ㅐ,ㅐ
2026-06-04,all_vowels,20,1,1.4731111999135464,1.0,1.3757371000014245,0.6891571000014245,ㅘ,ㅘ
2026-06-04,all_vowels,21,1,1.9975326999556275,1.0,1.4455424200044946,0.7038224200044944,ㅕ,ㅕ
2026-06-04,all_vowels,22,1,1.3240366999525577,1.0,1.4154926700051875,0.6988226700051874,ㅐ,ㅐ
2026-06-04,all_vowels,23,1,1.2340093001257628,1.0,1.4274663600139321,0.6858363600139319,ㅢ,ㅢ
2026-06-04,all_vowels,24,1,1.47429749998264,1.0,1.4275645300047473,0.6608045300047471,ㅝ,ㅝ
2026-06-04,all_vowels,25,1,2.280218600062653,1.0,1.4811734999995678,0.7696134999995679,ㅚ,ㅚ
2026-06-04,all_vowels,26,1,1.1838429998606443,1.0,1.449184009968303,0.7927240099683031,ㅜ,ㅜ
2026-06-04,all_vowels,27,1,0.9960743999108672,1.0,1.4371358199743554,0.7806758199743553,ㅓ,ㅓ
2026-06-04,all_vowels,28,1,1.530556300189346,1.0,1.487770890002139,0.7510008900021389,ㅠ,ㅠ
2026-06-04,all_vowels,29,1,1.353578999871388,1.0,1.4847258699825034,0.7479358699825033,ㅔ,ㅔ
2026-06-04,all_vowels,30,1,2.104013899806887,1.0,1.5478161399718373,0.7809561399718373,ㅒ,ㅒ
2026-06-04,all_vowels,31,1,1.479378200136125,1.0,1.496000689989887,0.7292206899898872,ㅛ,ㅛ
2026-06-04,all_vowels,32,1,1.1447534000035375,1.0,1.478072359994985,0.7413623599949852,ㅗ,ㅗ
2026-06-04,all_vowels,33,1,1.504438899923116,1.0,1.5051153199747203,0.7632753199747204,ㅟ,ㅟ
2026-06-04,all_vowels,34,1,0.9407020998187364,1.0,1.45175577995833,0.76511577995833,ㅏ,ㅏ
2026-06-04,all_vowels,35,1,1.538355200085789,1.0,1.3775694399606437,0.6658194399606436,ㅑ,ㅑ
2026-06-04,all_vowels,36,1,0.8732435000129044,1.0,1.3465094899758696,0.6598894899758696,ㅣ,ㅣ
2026-06-04,all_vowels,37,1,1.9063381000887605,1.0,1.437535859993659,0.6657058599936589,ㅖ,ㅖ
2026-06-04,all_vowels,38,1,1.38396849995479,1.0,1.4228770799702033,0.7113570799702034,ㅡ,ㅡ
2026-06-04,basic_consonants,1,1,1.469796400051564,1.0,1.469796400051564,1.319796400051564,ㅂ,ㅂ
2026-06-04,basic_consonants,2,1,1.0291662998497486,1.0,1.2494813499506563,1.0994813499506564,ㄷ,ㄷ
2026-06-04,basic_consonants,3,1,0.799551900010556,1.0,1.0995048666372895,0.9495048666372895,ㅇ,ㅇ
2026-06-04,basic_consonants,4,1,1.2643534000962973,1.0,1.1407170000020415,0.9907170000020415,ㅈ,ㅈ
2026-06-04,basic_consonants,5,1,0.693900499958545,1.0,1.0513536999933422,0.9013536999933421,ㄱ,ㄱ
2026-06-04,basic_consonants,6,1,0.6213970999233425,1.0,0.9796942666483422,0.8296942666483421,ㄴ,ㄴ
2026-06-04,basic_consonants,7,1,1.016426800051704,1.0,0.9849417714202511,0.834941771420251,ㅅ,ㅅ
2026-06-04,basic_consonants,8,1,0.7533191000111401,1.0,0.9559889374941122,0.8059889374941122,ㅅ,ㅅ
2026-06-04,basic_consonants,9,1,0.7848251999821514,1.0,0.9369707444372276,0.7869707444372277,ㅇ,ㅇ
2026-06-04,basic_consonants,10,1,0.7085462999530137,1.0,0.9141282999888063,0.7641282999888063,ㄷ,ㄷ
2026-06-04,basic_consonants,11,1,1.234093400184065,1.0,0.8905580000020563,0.7405580000020564,ㅂ,ㅂ
2026-06-04,basic_consonants,12,1,0.6697237000335008,1.0,0.8546137400204316,0.7046137400204315,ㄱ,ㄱ
2026-06-04,basic_consonants,13,1,1.0940237999893725,1.0,0.8840609300183132,0.7340609300183132,ㅈ,ㅈ
2026-06-04,basic_consonants,14,1,0.6511200000531971,1.0,0.8227375900140033,0.6727375900140032,ㄴ,ㄴ
2026-06-04,basic_vowels,1,1,1.2062248999718577,1.0,1.2062248999718577,0.8562248999718577,ㅡ,ㅡ
2026-06-04,basic_vowels,2,1,0.9646421000361444,1.0,1.085433500004001,0.7100835000040009,ㅗ,ㅗ
2026-06-04,basic_vowels,3,1,1.05555639998056,1.0,1.075474466662854,0.6915411333295206,ㅓ,ㅓ
2026-06-04,basic_vowels,4,1,1.1078141999896616,1.0,1.0835593999945559,0.7581093999945558,ㅣ,ㅣ
2026-06-04,basic_vowels,5,1,0.902130999835208,1.0,1.0472737199626863,0.7066537199626863,ㅜ,ㅜ
2026-06-04,basic_vowels,6,1,0.862914799945429,1.0,1.0165472332931433,0.6658805666264768,ㅏ,ㅏ
2026-06-04,basic_vowels,7,1,0.8751020999625325,1.0,0.9963407856744847,0.6384407856744847,ㅜ,ㅜ
2026-06-04,basic_vowels,8,1,1.4518069000914693,1.0,1.0532740499766078,0.6963615499766078,ㅡ,ㅡ
2026-06-04,basic_vowels,9,1,0.8978295000270009,1.0,1.0360024333155404,0.6742024333155404,ㅏ,ㅏ
2026-06-04,basic_vowels,10,1,0.9408863000571728,1.0,1.0264908199897036,0.6858708199897036,ㅣ,ㅣ
2026-06-04,basic_vowels,11,1,0.8469632999040186,1.0,0.9905646599829196,0.6448746599829196,ㅗ,ㅗ
2026-06-04,basic_vowels,12,1,0.8731567000504583,1.0,0.9814161199843511,0.6356861199843511,ㅓ,ㅓ
2026-06-04,complex_vowels,1,1,1.863835999974981,1.0,1.863835999974981,0.910935999974981,ㅝ,ㅝ
2026-06-04,complex_vowels,2,1,1.893815600080416,1.0,1.8788258000276985,1.0516758000276982,ㅐ,ㅐ
2026-06-04,complex_vowels,3,1,1.625050000147894,1.0,1.7942338667344302,0.9254338667344301,ㅘ,ㅘ
2026-06-04,complex_vowels,4,1,2.253862699959427,1.0,1.9091410750406794,1.0822410750406792,ㅚ,ㅚ
2026-06-04,complex_vowels,5,1,2.2548296998720616,1.0,1.9782788000069558,1.0661988000069558,ㅒ,ㅒ
2026-06-04,complex_vowels,6,1,2.142961700214073,1.0,2.0057259500414752,1.036792616708142,ㅖ,ㅖ
2026-06-04,complex_vowels,7,1,1.7775018999818712,1.0,1.9731225143186748,1.0423510857472462,ㅟ,ㅟ
2026-06-04,complex_vowels,8,1,1.7750552999787033,1.0,1.9483641125261784,1.0462391125261783,ㅔ,ㅔ
2026-06-04,complex_vowels,9,1,1.7757708998396993,1.0,1.9291870888943474,0.9880982000054586,ㅒ,ㅒ
2026-06-04,complex_vowels,10,1,1.5939054999034852,1.0,1.895658929995261,0.978538929995261,ㅐ,ㅐ
2026-06-04,complex_vowels,11,1,1.47370360000059,1.0,1.856645689997822,0.964655689997822,ㅔ,ㅔ
2026-06-04,complex_vowels,12,1,1.6839956999756396,1.0,1.8356636999873444,0.9185236999873446,ㅝ,ㅝ
2026-06-04,complex_vowels,13,1,1.5629165000282228,1.0,1.8294503499753774,0.9373403499753774,ㅟ,ㅟ
2026-06-04,complex_vowels,14,1,1.7134660999290643,1.0,1.775410689972341,0.8281006899723412,ㅖ,ㅖ
2026-06-04,complex_vowels,15,1,1.683465600013733,1.0,1.7182742799865083,0.8261242799865082,ㅚ,ㅚ
2026-06-04,complex_vowels,16,1,1.5633913001511246,1.0,1.6603172399802133,0.7982772399802134,ㅘ,ㅘ
2026-06-04,double_consonants,1,1,1.0130119000095874,1.0,1.0130119000095874,0.5623119000095874,ㅉ,ㅉ
2026-06-04,double_consonants,2,1,0.782225500093773,1.0,0.8976187000516802,0.4472187000516802,ㄸ,ㄸ
2026-06-04,double_consonants,3,1,1.078361500054598,1.0,0.9578663000526527,0.5073996333859861,ㅃ,ㅃ
2026-06-04,double_consonants,4,1,1.1436526998877523,1.0,1.0043129000114277,0.5538629000114277,ㅆ,ㅆ
2026-06-04,double_consonants,5,1,0.7772640001494437,1.0,0.9589031200390309,0.508483120039031,ㄲ,ㄲ
2026-06-04,double_consonants,6,1,0.9391127000562848,1.0,0.9556047167085732,0.5051380500419066,ㅉ,ㅉ
2026-06-04,double_consonants,7,1,0.7967438001651317,1.0,0.9329103000595101,0.482467442916653,ㄲ,ㄲ
2026-06-04,double_consonants,8,1,0.924519999884069,1.0,0.93186151253758,0.48139901253758,ㅃ,ㅃ
2026-06-04,double_consonants,9,1,0.7834701000247151,1.0,0.9153735778139284,0.46495135559170614,ㄸ,ㄸ
2026-06-04,double_consonants,10,1,0.9354886000510304,1.0,0.9173850800376385,0.46696508003763854,ㅆ,ㅆ
2026-06-04,double_vowels,1,1,1.6006634999066591,1.0,1.6006634999066591,0.9501634999066592,ㅢ,ㅢ
2026-06-04,double_vowels,2,1,1.4062051000073552,1.0,1.5034342999570072,0.7016342999570072,ㅠ,ㅠ
2026-06-04,double_vowels,3,1,1.2679582999553531,1.0,1.4249422999564558,0.5731089666231225,ㅛ,ㅛ
2026-06-04,double_vowels,4,1,1.2460894000250846,1.0,1.380229074973613,0.503179074973613,ㅕ,ㅕ
2026-06-04,double_vowels,5,1,1.2382889001164583,1.0,1.351841040002182,0.4597410400021821,ㅑ,ㅑ
2026-06-04,double_vowels,6,1,1.2730771000497043,1.0,1.338713716676769,0.4364470500101025,ㅠ,ㅠ
2026-06-04,double_vowels,7,1,1.2124182998668402,1.0,1.3206715142753507,0.4543715142753508,ㅢ,ㅢ
2026-06-04,double_vowels,8,1,1.233059300109744,1.0,1.30971998750465,0.4326699875046499,ㅑ,ㅑ
2026-06-04,double_vowels,9,1,1.2378059001639483,1.0,1.301729533355683,0.41627397780012754,ㅕ,ㅕ
2026-06-04,double_vowels,10,1,1.2503289000596851,1.0,1.2965894700260834,0.40448947002608326,ㅛ,ㅛ
2026-06-04,long_consonants,1,1,0.8747293001506478,1.0,0.8747293001506478,0.5247293001506478,ㄹ,ㄹ
2026-06-04,long_consonants,2,1,1.235003300011158,1.0,1.0548663000809029,0.7048663000809029,ㅁ,ㅁ
2026-06-04,long_consonants,3,1,1.4924015998840332,1.0,1.2007114000152797,0.8507114000152797,ㅍ,ㅍ
2026-06-04,long_consonants,4,0,1.8019193999934944,0.75,1.3510134000098333,1.0010134000098332,ㅊ,ㅍ
2026-06-04,long_consonants,5,1,0.9656384999398142,0.8,1.2739384199958295,0.9239384199958295,ㅋ,ㅋ
2026-06-04,long_consonants,6,1,1.49555080011487,0.8333333333333334,1.3108738166823362,0.9608738166823363,ㅎ,ㅎ
2026-06-04,long_consonants,7,1,1.1260530999861658,0.8571428571428571,1.284470857154312,0.9344708571543119,ㅌ,ㅌ
2026-06-04,long_consonants,8,1,1.6804752999451011,0.875,1.3339714125031605,0.9839714125031604,ㅍ,ㅍ
2026-06-04,long_consonants,9,1,0.8152937998529524,0.8888888888888888,1.2763405666531373,0.9263405666531374,ㄹ,ㄹ
2026-06-04,long_consonants,10,1,0.9193380000069736,0.9,1.240640309988521,0.8906403099885211,ㅋ,ㅋ
2026-06-04,long_consonants,11,1,0.8933352001477033,0.9,1.2425008999882265,0.8925008999882266,ㅌ,ㅌ
2026-06-04,long_consonants,12,1,1.1606405000202358,0.9,1.2350646199891344,0.8850646199891343,ㅎ,ㅎ
2026-06-04,long_consonants,13,1,0.971386200049892,0.9,1.1829630800057203,0.8329630800057203,ㅁ,ㅁ
2026-06-04,long_consonants,14,1,0.8152300000656396,1.0,1.084294140012935,0.7342941400129348,ㅊ,ㅊ
2026-06-04,long_consonants,15,1,0.7628854000940919,1.0,1.0640188300283626,0.7140188300283625,ㅋ,ㅋ
2026-06-04,long_consonants,16,1,0.6569088997785002,1.0,0.9801546399947256,0.6301546399947255,ㄹ,ㄹ
2026-06-04,long_consonants,17,1,0.787173300050199,1.0,0.9462666600011289,0.5962666600011289,ㅌ,ㅌ
2026-06-04,long_consonants,18,1,0.948846299899742,1.0,0.873103759996593,0.523103759996593,ㅁ,ㅁ
2026-06-04,syllable_top50,1,1,2.3512843002099544,1.0,2.3512843002099544,1.1489843002099545,상,상
2026-06-04,syllable_top50,2,1,2.2996678000781685,1.0,2.3254760501440614,1.1234260501440614,선,선
2026-06-04,syllable_top50,3,1,1.6588601002003998,1.0,2.103270733496174,1.0347040668295076,서,서
2026-06-04,syllable_top50,4,1,1.8437979000154885,1.0,2.0384025251260027,0.9365275251260027,전,전
2026-06-04,syllable_top50,5,1,1.3479926998261362,1.0,1.9003205600660293,0.8585805600660293,오,오
2026-06-04,syllable_top50,6,1,1.4411454999353737,1.0,1.8237913833775867,0.8221413833775868,도,도
2026-06-04,syllable_top50,7,1,1.444540300173685,1.0,1.7696126572056008,0.7965698000627437,가,가
2026-06-04,syllable_top50,8,1,3.215444100089371,1.0,1.9503415875660721,0.9362165875660721,회,회
2026-06-04,syllable_top50,9,1,2.3163964999839664,1.0,1.9910143556125048,0.9559588000569492,성,성
2026-06-04,syllable_top50,10,1,2.4044653000310063,1.0,2.032359450054355,1.020669450054355,나,나
2026-06-04,syllable_top50,11,1,2.557238199980929,1.0,2.0529548400314526,1.0513048400314524,개,개
2026-06-04,syllable_top50,12,1,3.694828500039876,1.0,2.192470910027623,1.190730910027623,중,중
2026-06-04,syllable_top50,13,1,2.621666900115088,1.0,2.288751590019092,1.1918915900190918,관,관
2026-06-04,syllable_top50,14,1,2.2929970999248326,1.0,2.3336715100100265,1.2367915100100264,것,것
2026-06-04,syllable_top50,15,1,2.723563800100237,1.0,2.4712286200374365,1.3442586200374365,제,제
2026-06-04,syllable_top50,16,1,1.6254489000421015,1.0,2.4896589600481094,1.3626689600481092,사,사
2026-06-04,syllable_top50,17,1,1.567007499979809,1.0,2.5019056800287216,1.3748756800287218,구,구
2026-06-04,syllable_top50,18,1,1.5617509000003338,1.0,2.336536360019818,1.2846263600198178,시,시
2026-06-04,syllable_top50,19,1,2.183062299853191,1.0,2.32320294000674,1.2813129400067402,위,위
2026-06-04,syllable_top50,20,1,1.924374699825421,1.0,2.275193879986182,1.258393879986182,지,지
2026-06-04,syllable_top50,21,1,3.4545501000247896,1.0,2.364925069990568,1.3431750699905678,등,등
2026-06-04,syllable_top50,22,1,3.131077100057155,1.0,2.308549929992296,1.2919999299922957,일,일
2026-06-04,syllable_top50,23,1,1.5640174001455307,1.0,2.2027849799953403,1.28137497999534,아,아
2026-06-04,syllable_top50,24,1,1.5866620000451803,1.0,2.1321514700073747,1.2507614700073748,수,수
2026-06-04,syllable_top50,25,1,3.1244849001523107,1.0,2.1722435800125823,1.2808435800125824,업,업
2026-06-04,syllable_top50,26,1,2.6961403000168502,1.0,2.279312720010057,1.357862720010057,내,내
2026-06-04,syllable_top50,27,1,1.6802220998797566,1.0,2.290634180000052,1.3492241800000517,하,하
2026-06-04,syllable_top50,28,1,2.474547700025141,1.0,2.3819138600025327,1.3753438600025325,동,동
2026-06-04,syllable_top50,29,1,2.9214438998606056,1.0,2.455752020003274,1.3840020200032739,경,경
2026-06-04,syllable_top50,30,1,2.767904399894178,1.0,2.5401049900101498,1.3580349900101498,계,계
2026-06-04,syllable_top50,31,1,2.7650882999878377,1.0,2.4711588100064548,1.3240488100064547,부,부
2026-06-04,syllable_top50,32,1,3.416587800020352,1.0,2.4997098800027744,1.3425398800027744,있,있
2026-06-04,syllable_top50,33,1,1.9243445000611248,1.0,2.5357425899943338,1.3384625899943337,정,정
2026-06-04,syllable_top50,34,1,1.5785366999916732,1.0,2.534930059988983,1.337710059988983,고,고
2026-06-04,syllable_top50,35,1,1.7511480001267046,1.0,2.3975963699864224,1.2655463699864224,이,이
2026-06-04,syllable_top50,36,1,2.1665675998665392,1.0,2.344639099971391,1.2025690999713912,국,국
2026-06-04,syllable_top50,37,0,1.8435879999306053,0.9,2.360975689976476,1.2439956899764764,스,스\
2026-06-04,syllable_top50,38,1,2.4378200999926776,0.9,2.3573029299732298,1.2403029299732298,장,장
2026-06-04,syllable_top50,39,1,2.712786000221968,0.9,2.336437140009366,1.219487140009366,원,원
2026-06-04,syllable_top50,40,1,1.564928299980238,0.9,2.216139530017972,1.209509530017972,기,기
2026-06-04,syllable_top50,41,1,1.864149099914357,0.9,2.1260456100106238,1.1194156100106238,주,주
2026-06-04,syllable_top50,42,1,1.5290514000225812,0.9,1.9372919700108469,0.9756519700108468,자,자
2026-06-04,syllable_top50,43,1,2.144954699790105,0.9,1.959352989983745,1.012862989983745,의,의
2026-06-04,syllable_top50,44,1,1.90573520003818,0.9,1.9920728399883956,1.0054928399883956,공,공
2026-06-04,syllable_top50,45,1,1.7030042000114918,0.9,1.9872584599768743,1.0006784599768743,비,비
2026-06-04,syllable_top50,46,1,1.567437400110066,0.9,1.9273454400012269,0.9808554400012269,소,소
2026-06-04,syllable_top50,47,1,2.874958199914545,1.0,2.0304824599996207,1.0639724599996208,인,인
2026-06-04,syllable_top50,48,1,2.947122300043702,1.0,2.0814126800047235,1.1249426800047233,대,대
2026-06-04,syllable_top50,49,1,1.577021700097248,1.0,1.9678362499922515,1.1116762499922515,리,리
2026-06-04,syllable_top50,50,1,1.7320293001830578,1.0,1.9845463500125333,1.1033163500125334,보,보
