subject_id,session_id,condition_index,condition_name,condition_score,phase,trial_global,trial_in_condition,mini_block,position,motor_id,correct_symbol,correct_consonant,response_symbol,response_source,is_correct,voice_onset_rt_sec,response_confirm_rt_sec,top5_json,timestamp,source_file,condition_type,position_label,learning_trial_index,retention_trial_index,symbol_exposure_index,position_exposure_index,mini_block_calc
1,20260602_183742,1,C1_PhoneLike,8,learning,1,1,1,9,7,지읒,ㅈ,지읒,top1,1,1.5076706998515874,4.066140174865723,"[[""지읒"", 0.23604757571463217], [""비읍"", 0.17664860364256038], [""시옷"", 0.1367800828407211], [""디귿"", 0.11928299428741143], [""기역"", 0.11809297008843843]]",1780393212.5036285,data\logs\subject_001_20260602_183742.csv,High-schema,P9 elbow-right,1.0,,1.0,1.0,1.0
1,20260602_183742,1,C1_PhoneLike,8,learning,2,2,1,6,4,비읍,ㅂ,시옷,top1,0,3.065247099846601,4.461895704269409,"[[""시옷"", 0.23773218669818597], [""비읍"", 0.1919104145338919], [""지읒"", 0.1878774550007597], [""디귿"", 0.13158933724664462], [""기역"", 0.07463111938361147]]",1780393222.2142577,data\logs\subject_001_20260602_183742.csv,High-schema,P6 mid-right,2.0,,1.0,1.0,1.0
1,20260602_183742,1,C1_PhoneLike,8,learning,3,3,1,5,5,미음,ㅁ,이응,top1,0,1.9875054999720303,3.6607391834259033,"[[""이응"", 0.5108335289337178], [""미음"", 0.24828716788701186], [""리을"", 0.06950093267103856], [""비읍"", 0.038502842906637906], [""니은"", 0.03615383985114051]]",1780393234.2065265,data\logs\subject_001_20260602_183742.csv,High-schema,P5 mid-center,3.0,,1.0,1.0,1.0
1,20260602_183742,1,C1_PhoneLike,8,learning,4,4,1,4,6,리을,ㄹ,리을,top1,1,3.5181030998937786,4.806251525878906,"[[""리을"", 0.2484502657981673], [""미음"", 0.18116276129401662], [""니은"", 0.14673385566717168], [""디귿"", 0.12011198519827442], [""이응"", 0.08729574196458977]]",1780393241.0549755,data\logs\subject_001_20260602_183742.csv,High-schema,P4 mid-left,4.0,,1.0,1.0,1.0
1,20260602_183742,1,C1_PhoneLike,8,learning,5,5,1,1,3,기역,ㄱ,기역,top1,1,1.058392799925059,2.2656142711639404,"[[""기역"", 0.32574485330940917], [""비읍"", 0.19537553039702663], [""시옷"", 0.1897267710418781], [""지읒"", 0.09188681351584474], [""이응"", 0.06795795020166091]]",1780393245.7280092,data\logs\subject_001_20260602_183742.csv,High-schema,P1 wrist-left,5.0,,1.0,1.0,1.0
1,20260602_183742,1,C1_PhoneLike,8,learning,6,6,1,7,9,시옷,ㅅ,시옷,top1,1,2.136003100080416,3.2476773262023926,"[[""시옷"", 0.47360033791163886], [""비읍"", 0.15653903524343407], [""지읒"", 0.14676507455574875], [""기역"", 0.07676518273575882], [""디귿"", 0.03994113919403045]]",1780393249.991886,data\logs\subject_001_20260602_183742.csv,High-schema,P7 elbow-left,6.0,,1.0,1.0,1.0
1,20260602_183742,1,C1_PhoneLike,8,learning,7,7,1,8,8,이응,ㅇ,이응,top1,1,2.46386340004392,3.61202883720398,"[[""이응"", 0.4805074852590374], [""미음"", 0.14226290856396243], [""리을"", 0.13231118147533696], [""비읍"", 0.07501019604369151], [""니은"", 0.039497802422155934]]",1780393254.259802,data\logs\subject_001_20260602_183742.csv,High-schema,P8 elbow-center,7.0,,1.0,1.0,1.0
1,20260602_183742,1,C1_PhoneLike,8,learning,8,8,1,2,2,니은,ㄴ,니은,top4,1,1.1441193998325616,3.2704145908355717,"[[""미음"", 0.2883665904496391], [""이응"", 0.24488822477188152], [""리을"", 0.10815190984709575], [""니은"", 0.10659222842869516], [""비읍"", 0.07739404822932484]]",1780393258.0610511,data\logs\subject_001_20260602_183742.csv,High-schema,P2 wrist-center,8.0,,1.0,1.0,1.0
1,20260602_183742,1,C1_PhoneLike,8,learning,9,9,1,6,4,비읍,ㅂ,비읍,top1,1,2.257654500193894,3.3835010528564453,"[[""비읍"", 0.3741473228603109], [""디귿"", 0.19744059098286157], [""미음"", 0.13441686166997424], [""니은"", 0.07302766476227288], [""지읒"", 0.06635729484212173]]",1780393261.9789462,data\logs\subject_001_20260602_183742.csv,High-schema,P6 mid-right,9.0,,2.0,2.0,1.0
1,20260602_183742,1,C1_PhoneLike,8,learning,10,10,2,4,6,리을,ㄹ,시옷,top1,0,3.9062018000986423,4.9633848667144775,"[[""시옷"", 0.4735870349087753], [""기역"", 0.24159733073782674], [""미음"", 0.04966058134632846], [""이응"", 0.049285067641561715], [""비읍"", 0.046473349738455974]]",1780393267.5555203,data\logs\subject_001_20260602_183742.csv,High-schema,P4 mid-left,10.0,,2.0,2.0,2.0
1,20260602_183742,1,C1_PhoneLike,8,learning,11,11,2,3,1,디귿,ㄷ,디귿,top2,1,1.0885848000179976,2.511068105697632,"[[""비읍"", 0.2827213390449699], [""디귿"", 0.24295952343054308], [""미음"", 0.09816806138119703], [""지읒"", 0.08943114066427052], [""이응"", 0.07602998487001855]]",1780393272.5877826,data\logs\subject_001_20260602_183742.csv,High-schema,P3 wrist-right,11.0,,1.0,1.0,2.0
1,20260602_183742,1,C1_PhoneLike,8,learning,12,12,2,1,3,기역,ㄱ,기역,top3,1,0.8786007999442518,2.6311190128326416,"[[""시옷"", 0.473121569216368], [""지읒"", 0.18230727000838495], [""기역"", 0.09874068271667817], [""비읍"", 0.0687195200959205], [""미음"", 0.05884907243859716]]",1780393275.75308,data\logs\subject_001_20260602_183742.csv,High-schema,P1 wrist-left,12.0,,2.0,2.0,2.0
1,20260602_183742,1,C1_PhoneLike,8,learning,13,13,2,2,2,니은,ㄴ,니은,manual,1,0.7877603000961244,5.601384162902832,"[[""이응"", 0.35953735366528344], [""미음"", 0.23990969871221018], [""리을"", 0.14284525781758622], [""디귿"", 0.06762589418757936], [""비읍"", 0.05175231623406965]]",1780393281.8584163,data\logs\subject_001_20260602_183742.csv,High-schema,P2 wrist-center,13.0,,2.0,2.0,2.0
1,20260602_183742,1,C1_PhoneLike,8,learning,14,14,2,5,5,미음,ㅁ,미음,top2,1,3.3396967998705804,4.88713264465332,"[[""이응"", 0.3398638371753905], [""미음"", 0.16314601013123708], [""비읍"", 0.12495701428556245], [""리을"", 0.11321666368653671], [""디귿"", 0.0767166337651761]]",1780393287.969351,data\logs\subject_001_20260602_183742.csv,High-schema,P5 mid-center,14.0,,2.0,2.0,2.0
1,20260602_183742,1,C1_PhoneLike,8,learning,15,15,2,9,7,지읒,ㅈ,지읒,top1,1,0.9672417000401764,2.4493744373321533,"[[""지읒"", 0.42517969916778253], [""시옷"", 0.12736294441279888], [""디귿"", 0.11114028869744302], [""비읍"", 0.0924043263630535], [""미음"", 0.06984970456612921]]",1780393290.8998003,data\logs\subject_001_20260602_183742.csv,High-schema,P9 elbow-right,15.0,,2.0,2.0,2.0
1,20260602_183742,1,C1_PhoneLike,8,learning,16,16,2,7,9,시옷,ㅅ,미음,top4,0,2.464669300010428,5.894733667373657,"[[""이응"", 0.21701978982032952], [""시옷"", 0.16357088014855214], [""비읍"", 0.13898172612151535], [""미음"", 0.11185724193766267], [""디귿"", 0.11167452154336438]]",1780393297.3910546,data\logs\subject_001_20260602_183742.csv,High-schema,P7 elbow-left,16.0,,2.0,2.0,2.0
1,20260602_183742,1,C1_PhoneLike,8,learning,17,17,2,8,8,이응,ㅇ,이응,top1,1,2.1363008997868747,3.3826074600219727,"[[""이응"", 0.3097698700879858], [""미음"", 0.17466119431980417], [""리을"", 0.13060012771313612], [""디귿"", 0.10407435330817989], [""비읍"", 0.09344762682448328]]",1780393301.8543527,data\logs\subject_001_20260602_183742.csv,High-schema,P8 elbow-center,17.0,,2.0,2.0,2.0
1,20260602_183742,1,C1_PhoneLike,8,learning,18,18,2,9,7,지읒,ㅈ,지읒,top2,1,1.5085570001974702,2.830730438232422,"[[""비읍"", 0.21084843850207471], [""지읒"", 0.2083999107124746], [""디귿"", 0.15387006048995647], [""미음"", 0.10090015339873273], [""이응"", 0.09387734481649726]]",1780393305.2128234,data\logs\subject_001_20260602_183742.csv,High-schema,P9 elbow-right,18.0,,3.0,3.0,2.0
1,20260602_183742,1,C1_PhoneLike,8,learning,19,19,3,1,3,기역,ㄱ,기역,top1,1,1.0234577001538128,2.164874792098999,"[[""기역"", 0.2901895926515269], [""비읍"", 0.14475886859169756], [""시옷"", 0.1408585415956862], [""지읒"", 0.13544903145689205], [""이응"", 0.09007863353466306]]",1780393307.841702,data\logs\subject_001_20260602_183742.csv,High-schema,P1 wrist-left,19.0,,3.0,3.0,3.0
1,20260602_183742,1,C1_PhoneLike,8,learning,20,20,3,4,6,리을,ㄹ,리을,top1,1,2.9753489000722766,4.12682318687439,"[[""리을"", 0.3427469622987902], [""미음"", 0.17073760209182992], [""이응"", 0.16927576626409982], [""니은"", 0.10451637960801909], [""디귿"", 0.07659001793656225]]",1780393312.581807,data\logs\subject_001_20260602_183742.csv,High-schema,P4 mid-left,20.0,,3.0,3.0,3.0
1,20260602_183742,1,C1_PhoneLike,8,learning,21,21,3,5,5,미음,ㅁ,미음,top3,1,2.346517200116068,4.222738027572632,"[[""이응"", 0.35516702596144784], [""리을"", 0.17233024196656352], [""미음"", 0.15704818699209983], [""비읍"", 0.11564222571790143], [""디귿"", 0.07108287171306477]]",1780393317.4097407,data\logs\subject_001_20260602_183742.csv,High-schema,P5 mid-center,21.0,,3.0,3.0,3.0
1,20260602_183742,1,C1_PhoneLike,8,learning,22,22,3,2,2,니은,ㄴ,니은,top4,1,0.9084363000001758,2.6208455562591557,"[[""이응"", 0.4570555876704399], [""미음"", 0.17949770269921822], [""리을"", 0.1551095084906354], [""니은"", 0.08288155665556965], [""비읍"", 0.03419518700849039]]",1780393320.5523174,data\logs\subject_001_20260602_183742.csv,High-schema,P2 wrist-center,22.0,,3.0,3.0,3.0
1,20260602_183742,1,C1_PhoneLike,8,learning,23,23,3,3,1,디귿,ㄷ,디귿,top2,1,0.9684786999132484,2.3959290981292725,"[[""비읍"", 0.3947723649021251], [""디귿"", 0.30001199786359317], [""지읒"", 0.17751792963024193], [""니은"", 0.027167417635555604], [""시옷"", 0.025417761935459998]]",1780393323.531207,data\logs\subject_001_20260602_183742.csv,High-schema,P3 wrist-right,23.0,,2.0,2.0,3.0
1,20260602_183742,1,C1_PhoneLike,8,learning,24,24,3,8,8,이응,ㅇ,미음,top1,0,2.3190472999121994,3.5016539096832275,"[[""미음"", 0.17894862751828106], [""이응"", 0.16726213250949365], [""시옷"", 0.12214283058540266], [""디귿"", 0.11813597323329533], [""기역"", 0.10971711822153658]]",1780393327.612404,data\logs\subject_001_20260602_183742.csv,High-schema,P8 elbow-center,24.0,,3.0,3.0,3.0
1,20260602_183742,1,C1_PhoneLike,8,learning,25,25,3,6,4,비읍,ㅂ,비읍,top1,1,1.598627100000158,2.607752084732056,"[[""비읍"", 0.7069459596893922], [""이응"", 0.0655703184210874], [""지읒"", 0.059374222120449335], [""디귿"", 0.040686449112097796], [""기역"", 0.0376392684936824]]",1780393331.591813,data\logs\subject_001_20260602_183742.csv,High-schema,P6 mid-right,25.0,,3.0,3.0,3.0
1,20260602_183742,1,C1_PhoneLike,8,learning,26,26,3,7,9,시옷,ㅅ,시옷,top1,1,1.68731619999744,2.8339297771453857,"[[""시옷"", 0.347119747750981], [""지읒"", 0.20370356917528423], [""비읍"", 0.17243259778354733], [""기역"", 0.0772615426205648], [""디귿"", 0.07059073048501899]]",1780393334.958371,data\logs\subject_001_20260602_183742.csv,High-schema,P7 elbow-left,26.0,,3.0,3.0,3.0
1,20260602_183742,1,C1_PhoneLike,8,learning,27,27,3,8,8,이응,ㅇ,이응,top1,1,1.299034700030461,2.4855382442474365,"[[""이응"", 0.4782659276047335], [""미음"", 0.15551806175258523], [""리을"", 0.10405464648824399], [""디귿"", 0.06484666410952772], [""비읍"", 0.06207697928766587]]",1780393338.0053675,data\logs\subject_001_20260602_183742.csv,High-schema,P8 elbow-center,27.0,,4.0,4.0,3.0
1,20260602_183742,1,C1_PhoneLike,8,learning,28,28,4,4,6,리을,ㄹ,리을,top1,1,2.075949899852276,3.225882053375244,"[[""리을"", 0.32221906708654047], [""이응"", 0.2153936051491391], [""미음"", 0.13447296499693448], [""니은"", 0.10402547853867428], [""비읍"", 0.0785655727751804]]",1780393341.834282,data\logs\subject_001_20260602_183742.csv,High-schema,P4 mid-left,28.0,,4.0,4.0,4.0
1,20260602_183742,1,C1_PhoneLike,8,learning,29,29,4,5,5,미음,ㅁ,미음,top4,1,1.6873051000293344,3.142026901245117,"[[""이응"", 0.3841568268838558], [""비읍"", 0.15720029430887494], [""리을"", 0.11242049262769245], [""미음"", 0.10148560986711641], [""디귿"", 0.07647003382323214]]",1780393345.519389,data\logs\subject_001_20260602_183742.csv,High-schema,P5 mid-center,29.0,,4.0,4.0,4.0
1,20260602_183742,1,C1_PhoneLike,8,learning,30,30,4,9,7,지읒,ㅈ,지읒,top1,1,1.2654683999717236,2.679461479187012,"[[""지읒"", 0.39430063806578], [""비읍"", 0.14524377992280688], [""디귿"", 0.1002310782205761], [""기역"", 0.07166981839857137], [""미음"", 0.07139902858029305]]",1780393348.8573189,data\logs\subject_001_20260602_183742.csv,High-schema,P9 elbow-right,30.0,,4.0,4.0,4.0
1,20260602_183742,1,C1_PhoneLike,8,learning,31,31,4,1,3,기역,ㄱ,기역,top2,1,0.9662222000770272,2.301846027374268,"[[""비읍"", 0.412370345562963], [""기역"", 0.1338894782974158], [""시옷"", 0.11230026045803565], [""디귿"", 0.10858653118187699], [""지읒"", 0.07650013215189519]]",1780393351.7627835,data\logs\subject_001_20260602_183742.csv,High-schema,P1 wrist-left,31.0,,4.0,4.0,4.0
1,20260602_183742,1,C1_PhoneLike,8,learning,32,32,4,3,1,디귿,ㄷ,디귿,top2,1,0.8150512999854982,2.183821201324463,"[[""비읍"", 0.6530256340832242], [""디귿"", 0.17360025750878982], [""지읒"", 0.03954261832639608], [""이응"", 0.03201191743721859], [""기역"", 0.02744905187691698]]",1780393354.5266445,data\logs\subject_001_20260602_183742.csv,High-schema,P3 wrist-right,32.0,,3.0,3.0,4.0
1,20260602_183742,1,C1_PhoneLike,8,learning,33,33,4,2,2,니은,ㄴ,니은,manual,1,0.7584991999901831,4.522044897079468,"[[""이응"", 0.22620182892747825], [""리을"", 0.1988650307997535], [""미음"", 0.1817464460055299], [""디귿"", 0.10428008225791016], [""비읍"", 0.09799234877376758]]",1780393359.6093214,data\logs\subject_001_20260602_183742.csv,High-schema,P2 wrist-center,33.0,,4.0,4.0,4.0
1,20260602_183742,1,C1_PhoneLike,8,learning,34,34,4,7,9,시옷,ㅅ,시옷,top1,1,1.174343799939379,2.5080795288085938,"[[""시옷"", 0.3293698481629628], [""비읍"", 0.17990185477717716], [""디귿"", 0.1100002613681422], [""기역"", 0.09184811075723817], [""미음"", 0.08653486647786207]]",1780393363.194554,data\logs\subject_001_20260602_183742.csv,High-schema,P7 elbow-left,34.0,,4.0,4.0,4.0
1,20260602_183742,1,C1_PhoneLike,8,learning,35,35,4,6,4,비읍,ㅂ,비읍,top1,1,1.2087208000011742,2.5097732543945312,"[[""비읍"", 0.6953125318591098], [""디귿"", 0.06241804810877354], [""이응"", 0.05073711373101937], [""리을"", 0.05062859837665279], [""미음"", 0.03774589158984166]]",1780393366.1974518,data\logs\subject_001_20260602_183742.csv,High-schema,P6 mid-right,35.0,,4.0,4.0,4.0
1,20260602_183742,1,C1_PhoneLike,8,learning,36,36,4,4,6,리을,ㄹ,리을,top1,1,1.2636015000753105,2.559626579284668,"[[""리을"", 0.19484680437958074], [""미음"", 0.17260164513946766], [""이응"", 0.1530505818722327], [""비읍"", 0.14132425942012783], [""디귿"", 0.12755436830663835]]",1780393369.3423932,data\logs\subject_001_20260602_183742.csv,High-schema,P4 mid-left,36.0,,5.0,5.0,4.0
1,20260602_183742,1,C1_PhoneLike,8,learning,37,37,5,9,7,지읒,ㅈ,지읒,top1,1,1.0882943999022243,2.4347503185272217,"[[""지읒"", 0.5435748932080061], [""비읍"", 0.13089646245478184], [""디귿"", 0.08585833633579841], [""미음"", 0.0570457228816399], [""기역"", 0.050073724190984256]]",1780393372.8492067,data\logs\subject_001_20260602_183742.csv,High-schema,P9 elbow-right,37.0,,5.0,5.0,5.0
1,20260602_183742,1,C1_PhoneLike,8,retention,38,38,5,4,6,리을,ㄹ,리을,top2,1,1.3876434999983758,2.817187786102295,"[[""니은"", 0.2834696040154213], [""리을"", 0.26583393100579467], [""미음"", 0.1809699171985994], [""디귿"", 0.08282494833582305], [""비읍"", 0.07511199017112824]]",1780393376.2624753,data\logs\subject_001_20260602_183742.csv,High-schema,P4 mid-left,,1.0,,,
1,20260602_183742,1,C1_PhoneLike,8,retention,39,39,5,2,2,니은,ㄴ,니은,top5,1,0.9348599000368268,3.091094255447388,"[[""이응"", 0.4485628277370658], [""리을"", 0.15903013435376184], [""비읍"", 0.11118739978592236], [""미음"", 0.09011496731745357], [""니은"", 0.06968997804985075]]",1780393379.898353,data\logs\subject_001_20260602_183742.csv,High-schema,P2 wrist-center,,2.0,,,
1,20260602_183742,1,C1_PhoneLike,8,retention,40,40,5,1,3,기역,ㄱ,기역,top2,1,0.7267779000103474,2.285778522491455,"[[""비읍"", 0.2784145501832018], [""기역"", 0.27028823641770255], [""시옷"", 0.12816744961040746], [""디귿"", 0.1155842717585249], [""지읒"", 0.05884603072042841]]",1780393383.0139418,data\logs\subject_001_20260602_183742.csv,High-schema,P1 wrist-left,,3.0,,,
1,20260602_183742,1,C1_PhoneLike,8,retention,41,41,5,3,1,디귿,ㄷ,디귿,top1,1,0.7845165999606252,2.545644521713257,"[[""디귿"", 0.39234748894909965], [""비읍"", 0.3367812161408702], [""미음"", 0.06099211475121548], [""지읒"", 0.05445824231662564], [""리을"", 0.038649247157109864]]",1780393386.5793912,data\logs\subject_001_20260602_183742.csv,High-schema,P3 wrist-right,,4.0,,,
1,20260602_183742,1,C1_PhoneLike,8,retention,42,42,5,7,9,시옷,ㅅ,시옷,top1,1,1.2348386000376197,2.3783609867095947,"[[""시옷"", 0.5405993373834939], [""지읒"", 0.11439060463163678], [""비읍"", 0.10186579648948002], [""기역"", 0.08868877651381131], [""디귿"", 0.047836824660619594]]",1780393389.549477,data\logs\subject_001_20260602_183742.csv,High-schema,P7 elbow-left,,5.0,,,
1,20260602_183742,1,C1_PhoneLike,8,retention,43,43,5,6,4,비읍,ㅂ,비읍,top1,1,1.4739956001285464,2.5895206928253174,"[[""비읍"", 0.2237418360154948], [""지읒"", 0.17088487001354363], [""이응"", 0.14918513305918882], [""미음"", 0.14300686465604176], [""디귿"", 0.10410918282572802]]",1780393392.687788,data\logs\subject_001_20260602_183742.csv,High-schema,P6 mid-right,,6.0,,,
1,20260602_183742,1,C1_PhoneLike,8,retention,44,44,5,6,4,비읍,ㅂ,비읍,top1,1,1.055528499884531,2.160838842391968,"[[""비읍"", 0.5033353479780287], [""미음"", 0.11938599041844226], [""이응"", 0.08839797527397245], [""지읒"", 0.07663644135774438], [""디귿"", 0.06341645193077913]]",1780393395.4423892,data\logs\subject_001_20260602_183742.csv,High-schema,P6 mid-right,,7.0,,,
1,20260602_183742,1,C1_PhoneLike,8,retention,45,45,5,4,6,리을,ㄹ,리을,top1,1,1.4459159998223186,2.6898927688598637,"[[""리을"", 0.543129031566322], [""이응"", 0.1915117606598214], [""니은"", 0.0838415080017362], [""비읍"", 0.05525844183432124], [""미음"", 0.04333963976020147]]",1780393399.1612475,data\logs\subject_001_20260602_183742.csv,High-schema,P4 mid-left,,8.0,,,
1,20260602_183742,1,C1_PhoneLike,8,retention,46,46,6,2,2,니은,ㄴ,니은,top3,1,0.9354729000478984,2.664204835891724,"[[""이응"", 0.4099812376681174], [""미음"", 0.1529441002633451], [""니은"", 0.09955660669005972], [""비읍"", 0.08668398060889616], [""지읒"", 0.08051371746479105]]",1780393402.422366,data\logs\subject_001_20260602_183742.csv,High-schema,P2 wrist-center,,9.0,,,
1,20260602_183742,1,C1_PhoneLike,8,retention,47,47,6,3,1,디귿,ㄷ,디귿,top2,1,0.8154909000732005,2.408268690109253,"[[""비읍"", 0.400688659695035], [""디귿"", 0.27258712441367416], [""지읒"", 0.1482915259097611], [""기역"", 0.09509581814278777], [""니은"", 0.020180787179400486]]",1780393405.3383632,data\logs\subject_001_20260602_183742.csv,High-schema,P3 wrist-right,,10.0,,,
1,20260602_183742,1,C1_PhoneLike,8,retention,48,48,6,1,3,기역,ㄱ,기역,top1,1,0.7244082998950034,2.0157558917999268,"[[""기역"", 0.3778736175828061], [""비읍"", 0.2624048945124486], [""지읒"", 0.08618800612691815], [""시옷"", 0.08117158547802585], [""디귿"", 0.06894090134411764]]",1780393407.8590374,data\logs\subject_001_20260602_183742.csv,High-schema,P1 wrist-left,,11.0,,,
1,20260602_183742,1,C1_PhoneLike,8,retention,49,49,6,9,7,지읒,ㅈ,지읒,top1,1,1.0546949000563473,2.3801565170288086,"[[""지읒"", 0.6541269043822413], [""비읍"", 0.06329800053910156], [""기역"", 0.05670919200960909], [""미음"", 0.05056742247005888], [""디귿"", 0.047219472997482255]]",1780393410.8302686,data\logs\subject_001_20260602_183742.csv,High-schema,P9 elbow-right,,12.0,,,
1,20260602_183742,1,C1_PhoneLike,8,retention,50,50,6,7,9,시옷,ㅅ,시옷,manual,1,2.3155298000201583,5.614376544952393,"[[""니은"", 0.34381490474575704], [""리을"", 0.3260191520864023], [""디귿"", 0.07451411325351935], [""미음"", 0.07421109268869747], [""비읍"", 0.06019916489512618]]",1780393417.0063932,data\logs\subject_001_20260602_183742.csv,High-schema,P7 elbow-left,,13.0,,,
1,20260602_183742,1,C1_PhoneLike,8,retention,51,51,6,8,8,이응,ㅇ,이응,top2,1,1.5961570001672951,3.04982328414917,"[[""미음"", 0.3370419053406484], [""이응"", 0.19430366384771544], [""비읍"", 0.16502559688845356], [""니은"", 0.08136937673909672], [""리을"", 0.07183677069512025]]",1780393421.1572874,data\logs\subject_001_20260602_183742.csv,High-schema,P8 elbow-center,,14.0,,,
1,20260602_183742,1,C1_PhoneLike,8,retention,52,52,6,8,8,이응,ㅇ,이응,top1,1,0.8476650000084192,2.0229814052581787,"[[""이응"", 0.3555107488083089], [""비읍"", 0.1543901135154974], [""미음"", 0.1290904390905028], [""리을"", 0.11583045984667178], [""니은"", 0.09670817985108889]]",1780393423.666486,data\logs\subject_001_20260602_183742.csv,High-schema,P8 elbow-center,,15.0,,,
1,20260602_183742,1,C1_PhoneLike,8,retention,53,53,6,9,7,지읒,ㅈ,지읒,top1,1,1.4164787998888642,2.4560158252716064,"[[""지읒"", 0.7415074482915466], [""비읍"", 0.0638325730446096], [""디귿"", 0.047781376202157416], [""미음"", 0.042121281732229086], [""기역"", 0.028470096155709775]]",1780393426.6982913,data\logs\subject_001_20260602_183742.csv,High-schema,P9 elbow-right,,16.0,,,
1,20260602_183742,1,C1_PhoneLike,8,retention,54,54,6,5,5,미음,ㅁ,미음,top2,1,1.44490069989115,3.198357582092285,"[[""이응"", 0.38021391960697265], [""미음"", 0.23798880816248055], [""비읍"", 0.21021781323351726], [""리을"", 0.046047941539536355], [""니은"", 0.04290420627472715]]",1780393430.468746,data\logs\subject_001_20260602_183742.csv,High-schema,P5 mid-center,,17.0,,,
1,20260602_183742,1,C1_PhoneLike,8,retention,55,55,7,5,5,미음,ㅁ,미음,top1,1,1.1434073999989778,2.3214802742004395,"[[""미음"", 0.4859458890921189], [""니은"", 0.16761996553477396], [""이응"", 0.12217605425786167], [""비읍"", 0.06853860592762087], [""리을"", 0.061352505504301935]]",1780393433.6952791,data\logs\subject_001_20260602_183742.csv,High-schema,P5 mid-center,,18.0,,,
1,20260602_183742,2,C6_LowB,1,learning,56,1,1,2,2,니은,ㄴ,시옷,top1,0,1.8949414999224248,3.18953800201416,"[[""시옷"", 0.25320071641327235], [""기역"", 0.20062974169616896], [""비읍"", 0.1807791701919525], [""디귿"", 0.146860218777383], [""지읒"", 0.09147147997588638]]",1780393449.302867,data\logs\subject_001_20260602_183742.csv,Low-order,P2 wrist-center,1.0,,1.0,1.0,1.0
1,20260602_183742,2,C6_LowB,1,learning,57,2,1,8,8,시옷,ㅅ,디귿,top1,0,1.5634984001517296,2.6858396530151367,"[[""디귿"", 0.5885340274558185], [""비읍"", 0.24039314338715695], [""니은"", 0.040710649578556656], [""미음"", 0.03140383807136124], [""지읒"", 0.0303107282165346]]",1780393453.67902,data\logs\subject_001_20260602_183742.csv,Low-order,P8 elbow-center,2.0,,1.0,1.0,1.0
1,20260602_183742,2,C6_LowB,1,learning,58,3,1,7,9,디귿,ㄷ,지읒,top1,0,1.834929599892348,3.082540273666382,"[[""지읒"", 0.5783980539995855], [""비읍"", 0.10760776310972836], [""미음"", 0.06718219276108826], [""디귿"", 0.0604138991894172], [""기역"", 0.05386703460844817]]",1780393459.6537323,data\logs\subject_001_20260602_183742.csv,Low-order,P7 elbow-left,3.0,,1.0,1.0,1.0
1,20260602_183742,2,C6_LowB,1,learning,59,4,1,4,6,지읒,ㅈ,미음,top1,0,1.3834995001088828,2.59407901763916,"[[""미음"", 0.2594867373007571], [""이응"", 0.22384858161330362], [""비읍"", 0.17711747023033256], [""니은"", 0.09346664219011641], [""리을"", 0.07280977773002292]]",1780393465.4358976,data\logs\subject_001_20260602_183742.csv,Low-order,P4 mid-left,4.0,,1.0,1.0,1.0
1,20260602_183742,2,C6_LowB,1,learning,60,5,1,3,1,리을,ㄹ,비읍,top2,0,1.5639514001086354,3.278003215789795,"[[""시옷"", 0.2328772923398133], [""비읍"", 0.19261937052240863], [""미음"", 0.1685182465426876], [""지읒"", 0.12657924367424847], [""기역"", 0.08731313984035424]]",1780393471.8103075,data\logs\subject_001_20260602_183742.csv,Low-order,P3 wrist-right,5.0,,1.0,1.0,1.0
1,20260602_183742,2,C6_LowB,1,learning,61,6,1,9,7,미음,ㅁ,이응,top2,0,1.4733791998587549,3.0224404335021973,"[[""비읍"", 0.286672774061379], [""이응"", 0.25167019828372833], [""지읒"", 0.1498969560234564], [""미음"", 0.13826284584087462], [""니은"", 0.04361741667019426]]",1780393476.0206013,data\logs\subject_001_20260602_183742.csv,Low-order,P9 elbow-right,6.0,,1.0,1.0,1.0
1,20260602_183742,2,C6_LowB,1,learning,62,7,1,6,4,기역,ㄱ,미음,top2,0,1.2042203999590129,2.69140625,"[[""비읍"", 0.2742485580375125], [""미음"", 0.27207746654482556], [""이응"", 0.20266642962091352], [""리을"", 0.07667561716934303], [""디귿"", 0.05211319021671768]]",1780393480.1202793,data\logs\subject_001_20260602_183742.csv,Low-order,P6 mid-right,7.0,,1.0,1.0,1.0
1,20260602_183742,2,C6_LowB,1,learning,63,8,1,5,5,이응,ㅇ,디귿,top2,0,2.884820600040257,4.141965627670288,"[[""비읍"", 0.48866396536795864], [""디귿"", 0.22758585793125652], [""지읒"", 0.0709935663872478], [""미음"", 0.04427197818085826], [""시옷"", 0.04405689737156218]]",1780393485.8882532,data\logs\subject_001_20260602_183742.csv,Low-order,P5 mid-center,8.0,,1.0,1.0,1.0
1,20260602_183742,2,C6_LowB,1,learning,64,9,1,1,3,비읍,ㅂ,지읒,top1,0,2.5540052000433207,3.748602151870728,"[[""지읒"", 0.7028977261100174], [""미음"", 0.06199257090948853], [""비읍"", 0.05199015563306304], [""디귿"", 0.04632356704629758], [""시옷"", 0.043692772017713426]]",1780393490.5933585,data\logs\subject_001_20260602_183742.csv,Low-order,P1 wrist-left,9.0,,1.0,1.0,1.0
1,20260602_183742,2,C6_LowB,1,learning,65,10,2,5,5,이응,ㅇ,시옷,top2,0,2.8283518999814987,4.568305015563965,"[[""비읍"", 0.28408198995933426], [""시옷"", 0.16578008848816136], [""지읒"", 0.15581213725119636], [""이응"", 0.10159673412388394], [""미음"", 0.10110739578180966]]",1780393496.3832605,data\logs\subject_001_20260602_183742.csv,Low-order,P5 mid-center,10.0,,2.0,2.0,2.0
1,20260602_183742,2,C6_LowB,1,learning,66,11,2,7,9,디귿,ㄷ,시옷,top1,0,2.763385499827564,3.8848836421966553,"[[""시옷"", 0.4027117165158154], [""비읍"", 0.16090158123299741], [""기역"", 0.14370148217062073], [""지읒"", 0.09305519701653486], [""미음"", 0.06717148411627191]]",1780393501.9356754,data\logs\subject_001_20260602_183742.csv,Low-order,P7 elbow-left,11.0,,2.0,2.0,2.0
1,20260602_183742,2,C6_LowB,1,learning,67,12,2,9,7,미음,ㅁ,리을,top1,0,2.136357800103724,3.6005027294158936,"[[""리을"", 0.28115806406391997], [""니은"", 0.2174766031088918], [""미음"", 0.18076335006074654], [""비읍"", 0.14279071980109942], [""이응"", 0.05987403537998949]]",1780393506.6382277,data\logs\subject_001_20260602_183742.csv,Low-order,P9 elbow-right,12.0,,2.0,2.0,2.0
1,20260602_183742,2,C6_LowB,1,learning,68,13,2,2,2,니은,ㄴ,니은,top4,1,4.987713299924508,7.163040637969971,"[[""미음"", 0.29189033728073405], [""리을"", 0.18072667942933185], [""이응"", 0.15166228112543406], [""니은"", 0.13845102952152677], [""비읍"", 0.12197559769840555]]",1780393514.863643,data\logs\subject_001_20260602_183742.csv,Low-order,P2 wrist-center,13.0,,2.0,2.0,2.0
1,20260602_183742,2,C6_LowB,1,learning,69,14,2,8,8,시옷,ㅅ,비읍,top1,0,2.9738548998720944,4.142273426055908,"[[""비읍"", 0.6609663243832652], [""시옷"", 0.0593670048301435], [""디귿"", 0.05795303324282313], [""이응"", 0.0517062098954898], [""미음"", 0.050855771365399344]]",1780393519.7562735,data\logs\subject_001_20260602_183742.csv,Low-order,P8 elbow-center,14.0,,2.0,2.0,2.0
1,20260602_183742,2,C6_LowB,1,learning,70,15,2,6,4,기역,ㄱ,비읍,top1,0,0.6956502001266927,1.751927137374878,"[[""비읍"", 0.6002320648631738], [""디귿"", 0.10162277249534103], [""미음"", 0.08906160525772855], [""이응"", 0.06692091861970305], [""리을"", 0.04086383937654305]]",1780393524.3011315,data\logs\subject_001_20260602_183742.csv,Low-order,P6 mid-right,15.0,,2.0,2.0,2.0
1,20260602_183742,2,C6_LowB,1,learning,71,16,2,4,6,지읒,ㅈ,비읍,top1,0,1.6557253999635575,2.725588321685791,"[[""비읍"", 0.28555296071258224], [""미음"", 0.16269947718309982], [""지읒"", 0.12837297636933695], [""디귿"", 0.11592114932226899], [""니은"", 0.0870704449573341]]",1780393528.049118,data\logs\subject_001_20260602_183742.csv,Low-order,P4 mid-left,16.0,,2.0,2.0,2.0
1,20260602_183742,2,C6_LowB,1,learning,72,17,2,1,3,비읍,ㅂ,지읒,top1,0,3.0345546000171453,4.026298522949219,"[[""지읒"", 0.7430356666048052], [""디귿"", 0.07324942172204892], [""비읍"", 0.07248974971087381], [""기역"", 0.040968005511389315], [""시옷"", 0.01915283948855262]]",1780393533.4321153,data\logs\subject_001_20260602_183742.csv,Low-order,P1 wrist-left,17.0,,2.0,2.0,2.0
1,20260602_183742,2,C6_LowB,1,learning,73,18,2,3,1,리을,ㄹ,미음,top1,0,3.0032450000289828,4.013935327529907,"[[""미음"", 0.567265645812692], [""이응"", 0.1075172755397925], [""비읍"", 0.09112207654551092], [""지읒"", 0.07706710263603914], [""니은"", 0.06019338724972792]]",1780393538.6141603,data\logs\subject_001_20260602_183742.csv,Low-order,P3 wrist-right,18.0,,2.0,2.0,2.0
1,20260602_183742,2,C6_LowB,1,learning,74,19,3,3,1,리을,ㄹ,리을,top1,1,0.7260825999546796,1.9677135944366453,"[[""리을"", 0.39748880219409066], [""이응"", 0.12646456060365083], [""디귿"", 0.11730167101932196], [""미음"", 0.09808830822294767], [""비읍"", 0.09116523553614155]]",1780393541.433139,data\logs\subject_001_20260602_183742.csv,Low-order,P3 wrist-right,19.0,,3.0,3.0,3.0
1,20260602_183742,2,C6_LowB,1,learning,75,20,3,8,8,시옷,ㅅ,리을,top1,0,5.884179800050333,7.080986499786377,"[[""리을"", 0.2607758221050312], [""미음"", 0.21525308741149998], [""디귿"", 0.11967715983060606], [""비읍"", 0.10191645053040124], [""이응"", 0.10087821022444486]]",1780393551.063281,data\logs\subject_001_20260602_183742.csv,Low-order,P8 elbow-center,20.0,,3.0,3.0,3.0
1,20260602_183742,2,C6_LowB,1,learning,76,21,3,2,2,니은,ㄴ,니은,top4,1,0.8187631999608129,3.0242695808410645,"[[""이응"", 0.34911005373959564], [""리을"", 0.29172835956751786], [""미음"", 0.22315897787246347], [""니은"", 0.049050980774712476], [""비읍"", 0.029924700124956283]]",1780393554.918644,data\logs\subject_001_20260602_183742.csv,Low-order,P2 wrist-center,21.0,,3.0,3.0,3.0
1,20260602_183742,2,C6_LowB,1,learning,77,22,3,9,7,미음,ㅁ,비읍,top1,0,1.8333285998087376,2.777085542678833,"[[""비읍"", 0.5557472711230071], [""지읒"", 0.13857438273252226], [""미음"", 0.060356822819985285], [""디귿"", 0.054889137339086055], [""기역"", 0.052905704011951056]]",1780393558.4186366,data\logs\subject_001_20260602_183742.csv,Low-order,P9 elbow-right,22.0,,3.0,3.0,3.0
1,20260602_183742,2,C6_LowB,1,learning,78,23,3,4,6,지읒,ㅈ,디귿,top4,0,3.3642245000228286,5.242453575134277,"[[""비읍"", 0.46592877229802365], [""지읒"", 0.22317353776143042], [""미음"", 0.10040141849973183], [""디귿"", 0.07338331920536946], [""니은"", 0.046191642868443746]]",1780393564.80377,data\logs\subject_001_20260602_183742.csv,Low-order,P4 mid-left,23.0,,3.0,3.0,3.0
1,20260602_183742,2,C6_LowB,1,learning,79,24,3,7,9,디귿,ㄷ,지읒,top1,0,0.7532656001858413,2.0719847679138184,"[[""지읒"", 0.5986072776573956], [""시옷"", 0.07629693317795008], [""비읍"", 0.06752966130956138], [""미음"", 0.06242031221915292], [""디귿"", 0.061635254944049596]]",1780393567.859596,data\logs\subject_001_20260602_183742.csv,Low-order,P7 elbow-left,24.0,,3.0,3.0,3.0
1,20260602_183742,2,C6_LowB,1,learning,80,25,3,5,5,이응,ㅇ,이응,top4,1,2.91390149993822,4.253770112991333,"[[""비읍"", 0.28513242284488555], [""지읒"", 0.15212458546245744], [""미음"", 0.13421897020143012], [""이응"", 0.1238222250860507], [""니은"", 0.0898975449930613]]",1780393573.18192,data\logs\subject_001_20260602_183742.csv,Low-order,P5 mid-center,25.0,,3.0,3.0,3.0
1,20260602_183742,2,C6_LowB,1,learning,81,26,3,1,3,비읍,ㅂ,비읍,top1,1,1.0834651999175549,2.217360019683838,"[[""비읍"", 0.3827129421323888], [""지읒"", 0.18474190886953556], [""미음"", 0.14674584904748247], [""디귿"", 0.06137928524518546], [""이응"", 0.055590791822445494]]",1780393576.3746405,data\logs\subject_001_20260602_183742.csv,Low-order,P1 wrist-left,26.0,,3.0,3.0,3.0
1,20260602_183742,2,C6_LowB,1,learning,82,27,3,6,4,기역,ㄱ,리을,top4,0,4.594526199856773,7.172991037368774,"[[""미음"", 0.28839691194931105], [""니은"", 0.19119575348185394], [""이응"", 0.15025314750724209], [""리을"", 0.1180251028542911], [""비읍"", 0.11336056513957779]]",1780393585.078249,data\logs\subject_001_20260602_183742.csv,Low-order,P6 mid-right,27.0,,3.0,3.0,3.0
1,20260602_183742,2,C6_LowB,1,learning,83,28,4,7,9,디귿,ㄷ,디귿,top1,1,2.103957900078967,3.2250430583953857,"[[""디귿"", 0.45358102428746494], [""비읍"", 0.2730045730836606], [""니은"", 0.04897047680232891], [""미음"", 0.042539300537773425], [""기역"", 0.03986233717375392]]",1780393589.2181787,data\logs\subject_001_20260602_183742.csv,Low-order,P7 elbow-left,28.0,,4.0,4.0,4.0
1,20260602_183742,2,C6_LowB,1,learning,84,29,4,3,1,리을,ㄹ,지읒,top1,0,2.6141950997989625,3.6008570194244385,"[[""지읒"", 0.478945666162263], [""미음"", 0.11339667798810774], [""비읍"", 0.09899448651306382], [""시옷"", 0.07479610434040222], [""디귿"", 0.06657252927145442]]",1780393593.692039,data\logs\subject_001_20260602_183742.csv,Low-order,P3 wrist-right,29.0,,4.0,4.0,4.0
1,20260602_183742,2,C6_LowB,1,learning,85,30,4,1,3,비읍,ㅂ,비읍,top1,1,1.3243358999025077,2.407984733581543,"[[""비읍"", 0.27320523729584834], [""미음"", 0.20207253336846825], [""디귿"", 0.12385381391750976], [""니은"", 0.11971543515855321], [""지읒"", 0.06681204209979721]]",1780393596.9600384,data\logs\subject_001_20260602_183742.csv,Low-order,P1 wrist-left,30.0,,4.0,4.0,4.0
1,20260602_183742,2,C6_LowB,1,learning,86,31,4,9,7,미음,ㅁ,지읒,top1,0,1.744403300108388,2.89324164390564,"[[""지읒"", 0.5957161944616778], [""시옷"", 0.08422147290612324], [""비읍"", 0.06810968386486552], [""미음"", 0.06690539513339566], [""디귿"", 0.06036581923277037]]",1780393600.5657792,data\logs\subject_001_20260602_183742.csv,Low-order,P9 elbow-right,31.0,,4.0,4.0,4.0
1,20260602_183742,2,C6_LowB,1,learning,87,32,4,2,2,니은,ㄴ,니은,top1,1,1.0849836000707,2.307406425476074,"[[""니은"", 0.3207104479318734], [""미음"", 0.28685683934269485], [""리을"", 0.08237587376599209], [""비읍"", 0.07695211974507873], [""이응"", 0.06117703117723049]]",1780393603.796772,data\logs\subject_001_20260602_183742.csv,Low-order,P2 wrist-center,32.0,,4.0,4.0,4.0
1,20260602_183742,2,C6_LowB,1,learning,88,33,4,6,4,기역,ㄱ,기역,top1,1,3.066818500170484,4.034273624420166,"[[""기역"", 0.3613105027083919], [""지읒"", 0.1794390354543035], [""비읍"", 0.1594198685735544], [""미음"", 0.09410644575656531], [""시옷"", 0.06501832673733147]]",1780393608.9615726,data\logs\subject_001_20260602_183742.csv,Low-order,P6 mid-right,33.0,,4.0,4.0,4.0
1,20260602_183742,2,C6_LowB,1,learning,89,34,4,4,6,지읒,ㅈ,리을,top1,0,2.0151511998847127,3.250046730041504,"[[""리을"", 0.28489623697991984], [""미음"", 0.24926760694351074], [""니은"", 0.15514926382503624], [""디귿"", 0.0773842196530468], [""이응"", 0.07265053038664958]]",1780393612.8067052,data\logs\subject_001_20260602_183742.csv,Low-order,P4 mid-left,34.0,,4.0,4.0,4.0
1,20260602_183742,2,C6_LowB,1,learning,90,35,4,8,8,시옷,ㅅ,리을,top2,0,1.8646088000386956,3.421945810317993,"[[""니은"", 0.42189400491694623], [""리을"", 0.3698647784574333], [""이응"", 0.06251183081313456], [""미음"", 0.045764854282008174], [""디귿"", 0.038592836993295423]]",1780393617.207118,data\logs\subject_001_20260602_183742.csv,Low-order,P8 elbow-center,35.0,,4.0,4.0,4.0
1,20260602_183742,2,C6_LowB,1,learning,91,36,4,5,5,이응,ㅇ,이응,top1,1,1.775256099877879,2.8858773708343506,"[[""이응"", 0.31224769133591695], [""미음"", 0.1924548101189683], [""비읍"", 0.1240328261151494], [""니은"", 0.11798093515730572], [""리을"", 0.06423179015290793]]",1780393621.510824,data\logs\subject_001_20260602_183742.csv,Low-order,P5 mid-center,36.0,,4.0,4.0,4.0
1,20260602_183742,2,C6_LowB,1,learning,92,37,5,8,8,시옷,ㅅ,시옷,top1,1,1.654181599849835,2.687105178833008,"[[""시옷"", 0.3079792129173259], [""기역"", 0.1653608012274901], [""비읍"", 0.12755542569129663], [""지읒"", 0.12287753795070827], [""미음"", 0.0886124271789283]]",1780393624.9091468,data\logs\subject_001_20260602_183742.csv,Low-order,P8 elbow-center,37.0,,5.0,5.0,5.0
1,20260602_183742,2,C6_LowB,1,learning,93,38,5,9,7,미음,ㅁ,미음,top2,1,6.215407100040466,8.081386089324951,"[[""이응"", 0.45903355264174256], [""미음"", 0.26877986432683926], [""니은"", 0.08051589624473912], [""리을"", 0.046168631496894125], [""비읍"", 0.045396192349376245]]",1780393633.8475242,data\logs\subject_001_20260602_183742.csv,Low-order,P9 elbow-right,38.0,,5.0,5.0,5.0
1,20260602_183742,2,C6_LowB,1,learning,94,39,5,2,2,니은,ㄴ,니은,top1,1,1.2107806999702009,2.3639895915985107,"[[""니은"", 0.2941879443966339], [""이응"", 0.23066153259710814], [""비읍"", 0.15875030556325176], [""미음"", 0.15626767394632538], [""리을"", 0.0637874291388733]]",1780393658.766491,data\logs\subject_001_20260602_183742.csv,Low-order,P2 wrist-center,39.0,,5.0,5.0,5.0
1,20260602_183742,2,C6_LowB,1,learning,95,40,5,3,1,리을,ㄹ,지읒,top3,0,3.1293365999590605,6.810127973556519,"[[""비읍"", 0.24298220404625404], [""디귿"", 0.2421769701794117], [""지읒"", 0.2029355932945073], [""니은"", 0.06830052722955614], [""이응"", 0.0644919963726194]]",1780393666.503071,data\logs\subject_001_20260602_183742.csv,Low-order,P3 wrist-right,40.0,,5.0,5.0,5.0
1,20260602_183742,2,C6_LowB,1,learning,96,41,5,6,4,기역,ㄱ,기역,top4,1,1.234284000005573,3.050924777984619,"[[""비읍"", 0.3073988357214851], [""지읒"", 0.17785362200289745], [""미음"", 0.10472748497520253], [""기역"", 0.10127486949750258], [""이응"", 0.08335368485331406]]",1780393670.6321115,data\logs\subject_001_20260602_183742.csv,Low-order,P6 mid-right,41.0,,5.0,5.0,5.0
1,20260602_183742,2,C6_LowB,1,learning,97,42,5,5,5,이응,ㅇ,이응,top2,1,1.2347157998010516,2.985921621322632,"[[""비읍"", 0.4187957513092915], [""이응"", 0.20857428855486693], [""미음"", 0.1018734330613684], [""니은"", 0.06625738763604963], [""지읒"", 0.062485315928989225]]",1780393674.272005,data\logs\subject_001_20260602_183742.csv,Low-order,P5 mid-center,42.0,,5.0,5.0,5.0
1,20260602_183742,2,C6_LowB,1,learning,98,43,5,1,3,비읍,ㅂ,비읍,top1,1,1.9000882001128048,2.967003345489502,"[[""비읍"", 0.39468660893067553], [""니은"", 0.1357178941069981], [""기역"", 0.10342084142078928], [""디귿"", 0.09312715572018505], [""미음"", 0.07466745261727648]]",1780393679.8264782,data\logs\subject_001_20260602_183742.csv,Low-order,P1 wrist-left,43.0,,5.0,5.0,5.0
1,20260602_183742,2,C6_LowB,1,learning,99,44,5,7,9,디귿,ㄷ,디귿,top1,1,1.6253744000568986,2.682402849197388,"[[""디귿"", 0.5747073130468513], [""비읍"", 0.3049752004785553], [""니은"", 0.02963678578448025], [""기역"", 0.028683920375717743], [""지읒"", 0.021272063736836964]]",1780393683.3612282,data\logs\subject_001_20260602_183742.csv,Low-order,P7 elbow-left,44.0,,5.0,5.0,5.0
1,20260602_183742,2,C6_LowB,1,learning,100,45,5,4,6,지읒,ㅈ,리을,top1,0,1.3541602999903262,2.469289302825928,"[[""리을"", 0.3835977110657448], [""니은"", 0.17251639743048947], [""디귿"", 0.12321424421367445], [""미음"", 0.09174672300495405], [""이응"", 0.06878751207376982]]",1780393686.5492914,data\logs\subject_001_20260602_183742.csv,Low-order,P4 mid-left,45.0,,5.0,5.0,5.0
1,20260602_183742,2,C6_LowB,1,learning,101,46,6,4,6,지읒,ㅈ,지읒,top1,1,1.087293100077659,2.2236807346343994,"[[""지읒"", 0.4801643145751928], [""비읍"", 0.16658472461442173], [""기역"", 0.10656427460010537], [""시옷"", 0.06728347857435808], [""디귿"", 0.04751859444441952]]",1780393689.8020391,data\logs\subject_001_20260602_183742.csv,Low-order,P4 mid-left,46.0,,6.0,6.0,6.0
1,20260602_183742,2,C6_LowB,1,learning,102,47,6,5,5,이응,ㅇ,이응,top1,1,1.0297343998681754,2.110053539276123,"[[""이응"", 0.2688403679129209], [""미음"", 0.2105531716412036], [""비읍"", 0.15598889747417438], [""리을"", 0.12791115843953557], [""니은"", 0.08073326232593611]]",1780393692.4483037,data\logs\subject_001_20260602_183742.csv,Low-order,P5 mid-center,47.0,,6.0,6.0,6.0
1,20260602_183742,2,C6_LowB,1,learning,103,48,6,9,7,미음,ㅁ,지읒,top1,0,2.7935483001638204,3.9412784576416016,"[[""지읒"", 0.7005887024935555], [""비읍"", 0.0834181569320798], [""기역"", 0.05496529372530625], [""디귿"", 0.05084969847062952], [""시옷"", 0.0482602424397046]]",1780393697.222246,data\logs\subject_001_20260602_183742.csv,Low-order,P9 elbow-right,48.0,,6.0,6.0,6.0
1,20260602_183742,2,C6_LowB,1,learning,104,49,6,2,2,니은,ㄴ,니은,top4,1,1.114983200095594,3.285372495651245,"[[""비읍"", 0.24950511691962388], [""이응"", 0.18447511083830562], [""미음"", 0.15911955454104795], [""니은"", 0.12478744415722284], [""지읒"", 0.11668662411922238]]",1780393701.3714116,data\logs\subject_001_20260602_183742.csv,Low-order,P2 wrist-center,49.0,,6.0,6.0,6.0
1,20260602_183742,2,C6_LowB,1,learning,105,50,6,1,3,비읍,ㅂ,비읍,top1,1,1.0241394001059234,2.2041563987731934,"[[""비읍"", 0.7543080561368481], [""디귿"", 0.0540555136223618], [""니은"", 0.04663020397169747], [""이응"", 0.04478528919640826], [""리을"", 0.02468468547745321]]",1780393704.2875502,data\logs\subject_001_20260602_183742.csv,Low-order,P1 wrist-left,50.0,,6.0,6.0,6.0
1,20260602_183742,2,C6_LowB,1,learning,106,51,6,6,4,기역,ㄱ,기역,top2,1,1.5361540999729186,3.27000093460083,"[[""비읍"", 0.7622469148363001], [""기역"", 0.07352798698586806], [""지읒"", 0.05227692998062833], [""디귿"", 0.036209567264108546], [""시옷"", 0.028173258236039955]]",1780393708.304379,data\logs\subject_001_20260602_183742.csv,Low-order,P6 mid-right,51.0,,6.0,6.0,6.0
1,20260602_183742,2,C6_LowB,1,learning,107,52,6,3,1,리을,ㄹ,지읒,top1,0,1.774563199840486,2.9148335456848145,"[[""지읒"", 0.3457438884380034], [""미음"", 0.12928069884359084], [""기역"", 0.12679253264163914], [""비읍"", 0.10477366329095118], [""디귿"", 0.07697593962937765]]",1780393712.2687576,data\logs\subject_001_20260602_183742.csv,Low-order,P3 wrist-right,52.0,,6.0,6.0,6.0
1,20260602_183742,2,C6_LowB,1,learning,108,53,6,7,9,디귿,ㄷ,디귿,top2,1,1.4146059998311102,2.829235076904297,"[[""비읍"", 0.48871538618576005], [""디귿"", 0.2094212386504464], [""미음"", 0.09434273486890975], [""지읒"", 0.05916955503181957], [""니은"", 0.04470157449007743]]",1780393716.3909304,data\logs\subject_001_20260602_183742.csv,Low-order,P7 elbow-left,53.0,,6.0,6.0,6.0
1,20260602_183742,2,C6_LowB,1,learning,109,54,6,8,8,시옷,ㅅ,시옷,top3,1,1.4482751002069565,3.647833824157715,"[[""지읒"", 0.23833554385462946], [""비읍"", 0.23783764474779376], [""시옷"", 0.15852292815392996], [""기역"", 0.15162866377047848], [""이응"", 0.06611259407546922]]",1780393721.1729517,data\logs\subject_001_20260602_183742.csv,Low-order,P8 elbow-center,54.0,,6.0,6.0,6.0
1,20260602_183742,2,C6_LowB,1,learning,110,55,7,9,7,미음,ㅁ,미음,top2,1,1.5386618000920862,3.030738115310669,"[[""비읍"", 0.4464396929577589], [""미음"", 0.14360764522747585], [""이응"", 0.10233629121914899], [""디귿"", 0.07963501039363491], [""니은"", 0.06902556163698956]]",1780393724.970021,data\logs\subject_001_20260602_183742.csv,Low-order,P9 elbow-right,55.0,,7.0,7.0,7.0
1,20260602_183742,2,C6_LowB,1,learning,111,56,7,4,6,지읒,ㅈ,리을,top1,0,3.007764699868858,4.261523723602295,"[[""리을"", 0.2937202296463417], [""미음"", 0.2384691585572044], [""비읍"", 0.11467447856243909], [""이응"", 0.11272557270064722], [""디귿"", 0.09846080489187381]]",1780393729.9814026,data\logs\subject_001_20260602_183742.csv,Low-order,P4 mid-left,56.0,,7.0,7.0,7.0
1,20260602_183742,2,C6_LowB,1,learning,112,57,7,5,5,이응,ㅇ,이응,top1,1,1.0292261999566108,2.234744071960449,"[[""이응"", 0.4023874095104919], [""미음"", 0.142649905215395], [""비읍"", 0.1219311148701029], [""디귿"", 0.1049426032867685], [""리을"", 0.08287686050170034]]",1780393734.7393124,data\logs\subject_001_20260602_183742.csv,Low-order,P5 mid-center,57.0,,7.0,7.0,7.0
1,20260602_183742,2,C6_LowB,1,learning,113,58,7,3,1,리을,ㄹ,리을,top2,1,1.2984760999679563,2.71099591255188,"[[""이응"", 0.3245281366894769], [""리을"", 0.2596339548836532], [""미음"", 0.2011163775532068], [""니은"", 0.07097564220057548], [""비읍"", 0.06808735299992492]]",1780393738.224018,data\logs\subject_001_20260602_183742.csv,Low-order,P3 wrist-right,58.0,,7.0,7.0,7.0
1,20260602_183742,2,C6_LowB,1,learning,114,59,7,8,8,시옷,ㅅ,시옷,top1,1,1.0876619000919163,2.13393497467041,"[[""시옷"", 0.45178374910542196], [""비읍"", 0.09979268550586567], [""지읒"", 0.09901116126848966], [""미음"", 0.08568466078081596], [""디귿"", 0.07667244085134353]]",1780393741.0002484,data\logs\subject_001_20260602_183742.csv,Low-order,P8 elbow-center,59.0,,7.0,7.0,7.0
1,20260602_183742,2,C6_LowB,1,learning,115,60,7,6,4,기역,ㄱ,기역,top2,1,1.1751880999654531,2.5172312259674072,"[[""시옷"", 0.26416964150890826], [""기역"", 0.2623185796041029], [""지읒"", 0.12643470584775682], [""비읍"", 0.11954637212244622], [""이응"", 0.08415683416804536]]",1780393744.2862246,data\logs\subject_001_20260602_183742.csv,Low-order,P6 mid-right,60.0,,7.0,7.0,7.0
1,20260602_183742,2,C6_LowB,1,learning,116,61,7,7,9,디귿,ㄷ,디귿,top1,1,1.659225800074637,2.7783710956573486,"[[""디귿"", 0.5187582340276925], [""비읍"", 0.20738649233294904], [""지읒"", 0.11350424167809949], [""기역"", 0.038550484591292164], [""이응"", 0.03548057526361351]]",1780393747.7688386,data\logs\subject_001_20260602_183742.csv,Low-order,P7 elbow-left,61.0,,7.0,7.0,7.0
1,20260602_183742,2,C6_LowB,1,learning,117,62,7,1,3,비읍,ㅂ,비읍,top1,1,1.6543340000789613,2.7200515270233154,"[[""비읍"", 0.27823758873974347], [""미음"", 0.18812973033483146], [""지읒"", 0.13711837338821972], [""니은"", 0.1240634293757916], [""이응"", 0.10050191903054721]]",1780393751.044037,data\logs\subject_001_20260602_183742.csv,Low-order,P1 wrist-left,62.0,,7.0,7.0,7.0
1,20260602_183742,2,C6_LowB,1,learning,118,63,7,2,2,니은,ㄴ,니은,top3,1,1.058829399989918,2.676234245300293,"[[""미음"", 0.3307010835878953], [""이응"", 0.21234140488194875], [""니은"", 0.12500048805348835], [""리을"", 0.09310443295052336], [""비읍"", 0.08633798506020804]]",1780393754.3032048,data\logs\subject_001_20260602_183742.csv,Low-order,P2 wrist-center,63.0,,7.0,7.0,7.0
1,20260602_183742,2,C6_LowB,1,learning,119,64,8,7,9,디귿,ㄷ,디귿,top1,1,1.8064808000344783,2.823749303817749,"[[""디귿"", 0.4232057673098107], [""비읍"", 0.34914342895416894], [""니은"", 0.0681643284084971], [""지읒"", 0.03446884248357325], [""미음"", 0.03007975122064995]]",1780393757.6880536,data\logs\subject_001_20260602_183742.csv,Low-order,P7 elbow-left,64.0,,8.0,8.0,8.0
1,20260602_183742,2,C6_LowB,1,learning,120,65,8,9,7,미음,ㅁ,미음,top1,1,3.007740099914372,4.244384527206421,"[[""미음"", 0.3214639309876346], [""비읍"", 0.1790451902669783], [""이응"", 0.17421938193714936], [""니은"", 0.12763087202827714], [""기역"", 0.07522222929834714]]",1780393762.6752477,data\logs\subject_001_20260602_183742.csv,Low-order,P9 elbow-right,65.0,,8.0,8.0,8.0
1,20260602_183742,2,C6_LowB,1,learning,121,66,8,2,2,니은,ㄴ,니은,manual,1,1.1456115001346916,4.400487661361694,"[[""비읍"", 0.24601566764900445], [""미음"", 0.1836352858566498], [""이응"", 0.1255058619257352], [""지읒"", 0.1058616685765009], [""리을"", 0.09801830794706881]]",1780393767.6569295,data\logs\subject_001_20260602_183742.csv,Low-order,P2 wrist-center,66.0,,8.0,8.0,8.0
1,20260602_183742,2,C6_LowB,1,learning,122,67,8,3,1,리을,ㄹ,리을,top1,1,1.1144690001383424,2.2874135971069336,"[[""리을"", 0.38649974660675207], [""니은"", 0.15465443262873896], [""디귿"", 0.11343175667964617], [""미음"", 0.09381695680716384], [""이응"", 0.07619364682541897]]",1780393771.634863,data\logs\subject_001_20260602_183742.csv,Low-order,P3 wrist-right,67.0,,8.0,8.0,8.0
1,20260602_183742,2,C6_LowB,1,learning,123,68,8,5,5,이응,ㅇ,이응,top1,1,1.0842611999250948,2.7872228622436523,"[[""이응"", 0.4566739616549285], [""미음"", 0.16240951269268317], [""비읍"", 0.1044337984622723], [""니은"", 0.09347880200256269], [""디귿"", 0.056776080957615674]]",1780393774.9851575,data\logs\subject_001_20260602_183742.csv,Low-order,P5 mid-center,68.0,,8.0,8.0,8.0
1,20260602_183742,2,C6_LowB,1,learning,124,69,8,1,3,비읍,ㅂ,비읍,top1,1,1.239572599995881,2.478245735168457,"[[""비읍"", 0.32035179303952227], [""미음"", 0.22864927607321464], [""니은"", 0.1496785193699731], [""이응"", 0.10901857208313528], [""디귿"", 0.062073123130206194]]",1780393778.0233502,data\logs\subject_001_20260602_183742.csv,Low-order,P1 wrist-left,69.0,,8.0,8.0,8.0
1,20260602_183742,2,C6_LowB,1,learning,125,70,8,4,6,지읒,ㅈ,지읒,top1,1,1.89836289989762,2.95184588432312,"[[""지읒"", 0.4457085029667277], [""디귿"", 0.1468814920412235], [""비읍"", 0.08690663425427096], [""기역"", 0.07759001525772162], [""미음"", 0.07204478860450683]]",1780393781.77238,data\logs\subject_001_20260602_183742.csv,Low-order,P4 mid-left,70.0,,8.0,8.0,8.0
1,20260602_183742,2,C6_LowB,1,learning,126,71,8,8,8,시옷,ㅅ,시옷,top1,1,1.08724240004085,2.189136505126953,"[[""시옷"", 0.21906569245652643], [""지읒"", 0.2141767815595874], [""비읍"", 0.1233906617428843], [""미음"", 0.11419323456930625], [""디귿"", 0.09367551552264695]]",1780393784.513377,data\logs\subject_001_20260602_183742.csv,Low-order,P8 elbow-center,71.0,,8.0,8.0,8.0
1,20260602_183742,2,C6_LowB,1,learning,127,72,8,6,4,기역,ㄱ,기역,top3,1,1.3537419000640512,2.944397211074829,"[[""지읒"", 0.3529078776022788], [""비읍"", 0.23599916456779696], [""기역"", 0.18113776324895653], [""시옷"", 0.08378218723591828], [""미음"", 0.040438228312399196]]",1780393788.0838685,data\logs\subject_001_20260602_183742.csv,Low-order,P6 mid-right,72.0,,8.0,8.0,8.0
1,20260602_183742,2,C6_LowB,1,learning,128,73,9,5,5,이응,ㅇ,이응,top5,1,1.5976658998988569,3.434926986694336,"[[""비읍"", 0.23069134919590542], [""미음"", 0.21839814556186857], [""니은"", 0.1368288229646523], [""기역"", 0.12068621772256022], [""이응"", 0.08778348182617644]]",1780393792.0356655,data\logs\subject_001_20260602_183742.csv,Low-order,P5 mid-center,73.0,,9.0,9.0,9.0
1,20260602_183742,2,C6_LowB,1,learning,129,74,9,7,9,디귿,ㄷ,디귿,top1,1,1.7451522999908775,2.897914409637451,"[[""디귿"", 0.21555104683962817], [""비읍"", 0.21339331261415126], [""미음"", 0.14549164051507688], [""기역"", 0.11217212962122114], [""니은"", 0.09164398492348208]]",1780393795.4758468,data\logs\subject_001_20260602_183742.csv,Low-order,P7 elbow-left,74.0,,9.0,9.0,9.0
1,20260602_183742,2,C6_LowB,1,learning,130,75,9,2,2,니은,ㄴ,니은,top5,1,0.7865361000876874,2.8051111698150635,"[[""이응"", 0.35887366383040226], [""미음"", 0.19035490753596854], [""비읍"", 0.1542344698121664], [""디귿"", 0.08983511940795572], [""니은"", 0.05946628078964297]]",1780393799.08945,data\logs\subject_001_20260602_183742.csv,Low-order,P2 wrist-center,75.0,,9.0,9.0,9.0
1,20260602_183742,2,C6_LowB,1,retention,131,76,9,9,7,미음,ㅁ,미음,top1,1,2.585645499872044,3.765855312347412,"[[""미음"", 0.6540626859944625], [""니은"", 0.08032896804595648], [""이응"", 0.050872681894300345], [""지읒"", 0.04313080233831279], [""리을"", 0.04272997689506469]]",1780393803.5498672,data\logs\subject_001_20260602_183742.csv,Low-order,P9 elbow-right,,1.0,,,
1,20260602_183742,2,C6_LowB,1,retention,132,77,9,9,7,미음,ㅁ,미음,top1,1,0.8732763999141753,2.047213077545166,"[[""미음"", 0.2637021197965902], [""이응"", 0.19640155039879828], [""니은"", 0.18239997341973807], [""리을"", 0.12012942365285102], [""비읍"", 0.10673941529308094]]",1780393807.0456786,data\logs\subject_001_20260602_183742.csv,Low-order,P9 elbow-right,,2.0,,,
1,20260602_183742,2,C6_LowB,1,retention,133,78,9,2,2,니은,ㄴ,니은,top4,1,1.0239500999450684,3.12024998664856,"[[""비읍"", 0.3540151704399787], [""미음"", 0.2666961285457964], [""이응"", 0.10702499903705569], [""니은"", 0.08134020794512646], [""디귿"", 0.07522146469710285]]",1780393811.6707797,data\logs\subject_001_20260602_183742.csv,Low-order,P2 wrist-center,,3.0,,,
1,20260602_183742,2,C6_LowB,1,retention,134,79,9,5,5,이응,ㅇ,이응,top1,1,0.965377600165084,2.1920034885406494,"[[""이응"", 0.2004899774882715], [""미음"", 0.1978395427037817], [""비읍"", 0.17300733190488443], [""디귿"", 0.11029648576180688], [""니은"", 0.0963898713848151]]",1780393815.7964067,data\logs\subject_001_20260602_183742.csv,Low-order,P5 mid-center,,4.0,,,
1,20260602_183742,2,C6_LowB,1,retention,135,80,9,7,9,디귿,ㄷ,디귿,top2,1,1.474208900006488,2.8545339107513428,"[[""비읍"", 0.3946588938380264], [""디귿"", 0.2547865418670341], [""지읒"", 0.11260417856440678], [""미음"", 0.0793307884088396], [""니은"", 0.0458775185918976]]",1780393819.492525,data\logs\subject_001_20260602_183742.csv,Low-order,P7 elbow-left,,5.0,,,
1,20260602_183742,2,C6_LowB,1,retention,136,81,9,5,5,이응,ㅇ,이응,top1,1,1.7450487001333386,2.9250056743621826,"[[""이응"", 0.5260217520022762], [""미음"", 0.23284537472207337], [""니은"", 0.08115224838133832], [""비읍"", 0.05610067693070832], [""리을"", 0.038152118127809435]]",1780393823.0558157,data\logs\subject_001_20260602_183742.csv,Low-order,P5 mid-center,,6.0,,,
1,20260602_183742,2,C6_LowB,1,retention,137,82,10,6,4,기역,ㄱ,기역,top2,1,4.234970899997279,5.545045852661133,"[[""비읍"", 0.4136910099878921], [""기역"", 0.11647540321318658], [""지읒"", 0.11219039243354653], [""시옷"", 0.09664059378697258], [""디귿"", 0.07990240463172198]]",1780393829.440946,data\logs\subject_001_20260602_183742.csv,Low-order,P6 mid-right,,7.0,,,
1,20260602_183742,2,C6_LowB,1,retention,138,83,10,3,1,리을,ㄹ,리을,top2,1,1.3241255001630634,2.763505220413208,"[[""미음"", 0.20080000482265392], [""리을"", 0.19632075080375794], [""니은"", 0.17632337298824713], [""디귿"", 0.1653022905476767], [""비읍"", 0.09524551349749937]]",1780393832.9008994,data\logs\subject_001_20260602_183742.csv,Low-order,P3 wrist-right,,8.0,,,
1,20260602_183742,2,C6_LowB,1,retention,139,84,10,6,4,기역,ㄱ,기역,top2,1,1.4142014000099152,2.6195056438446045,"[[""비읍"", 0.3089955390218064], [""기역"", 0.16179280409478955], [""시옷"", 0.10125404494238359], [""디귿"", 0.1000906078612211], [""지읒"", 0.0989785965899097]]",1780393836.0453572,data\logs\subject_001_20260602_183742.csv,Low-order,P6 mid-right,,9.0,,,
1,20260602_183742,2,C6_LowB,1,retention,140,85,10,4,6,지읒,ㅈ,지읒,top1,1,2.344431000063196,3.3624775409698486,"[[""지읒"", 0.6590115512457042], [""비읍"", 0.0954832788384423], [""기역"", 0.05418939147987929], [""미음"", 0.053652428469064664], [""디귿"", 0.04315477411349673]]",1780393840.0588665,data\logs\subject_001_20260602_183742.csv,Low-order,P4 mid-left,,10.0,,,
1,20260602_183742,2,C6_LowB,1,retention,141,86,10,1,3,비읍,ㅂ,비읍,top1,1,1.4748197000008076,2.552842617034912,"[[""비읍"", 0.1832756424851433], [""이응"", 0.17647030936135896], [""시옷"", 0.15886410971468437], [""미음"", 0.153010212913625], [""지읒"", 0.10218876136713462]]",1780393843.1868649,data\logs\subject_001_20260602_183742.csv,Low-order,P1 wrist-left,,11.0,,,
1,20260602_183742,2,C6_LowB,1,retention,142,87,10,7,9,디귿,ㄷ,디귿,top3,1,5.645528299966827,8.2084321975708,"[[""미음"", 0.21671797393353293], [""이응"", 0.21302869213234166], [""디귿"", 0.15471406890574085], [""비읍"", 0.12731559275257143], [""시옷"", 0.09118791118144727]]",1780393852.308867,data\logs\subject_001_20260602_183742.csv,Low-order,P7 elbow-left,,12.0,,,
1,20260602_183742,2,C6_LowB,1,retention,143,88,10,2,2,니은,ㄴ,니은,top1,1,0.694180800113827,2.005844116210937,"[[""니은"", 0.3261109374597668], [""리을"", 0.18746915218356663], [""미음"", 0.16899310734901435], [""이응"", 0.11617913473160076], [""디귿"", 0.05307610491900602]]",1780393855.114693,data\logs\subject_001_20260602_183742.csv,Low-order,P2 wrist-center,,13.0,,,
1,20260602_183742,2,C6_LowB,1,retention,144,89,10,1,3,비읍,ㅂ,비읍,top2,1,1.0549340001307428,3.8524765968322754,"[[""기역"", 0.20122173942151986], [""비읍"", 0.19377831938269324], [""시옷"", 0.180527001905858], [""이응"", 0.14179808100251257], [""디귿"", 0.09811359596370701]]",1780393860.2940805,data\logs\subject_001_20260602_183742.csv,Low-order,P1 wrist-left,,14.0,,,
1,20260602_183742,2,C6_LowB,1,retention,145,90,10,8,8,시옷,ㅅ,시옷,top1,1,3.457814000081271,4.480571031570435,"[[""시옷"", 0.2985492175950375], [""지읒"", 0.1556794644089496], [""비읍"", 0.1391895649248902], [""디귿"", 0.11909435304387674], [""미음"", 0.08464562696821476]]",1780393865.2707837,data\logs\subject_001_20260602_183742.csv,Low-order,P8 elbow-center,,15.0,,,
1,20260602_183742,2,C6_LowB,1,retention,146,91,11,8,8,시옷,ㅅ,시옷,top1,1,1.0832839999347923,2.0464375019073486,"[[""시옷"", 0.29118274089177454], [""지읒"", 0.21929955319277725], [""비읍"", 0.15081624933003107], [""미음"", 0.08634761821557518], [""이응"", 0.07968219724741604]]",1780393867.8244429,data\logs\subject_001_20260602_183742.csv,Low-order,P8 elbow-center,,16.0,,,
1,20260602_183742,2,C6_LowB,1,retention,147,92,11,4,6,지읒,ㅈ,지읒,manual,1,3.813963300082833,8.395407438278198,"[[""니은"", 0.1990457880029318], [""디귿"", 0.19833392854749765], [""비읍"", 0.1496022685099488], [""리을"", 0.12207127590843293], [""이응"", 0.09063500510339902]]",1780393876.8672707,data\logs\subject_001_20260602_183742.csv,Low-order,P4 mid-left,,17.0,,,
1,20260602_183742,2,C6_LowB,1,retention,148,93,11,3,1,리을,ㄹ,리을,top2,1,1.0254126000218091,2.565448522567749,"[[""이응"", 0.26000466689402424], [""리을"", 0.2565690100247892], [""미음"", 0.22612793060969416], [""니은"", 0.08955432864959029], [""비읍"", 0.08144172236740295]]",1780393880.5255668,data\logs\subject_001_20260602_183742.csv,Low-order,P3 wrist-right,,18.0,,,
1,20260602_183742,3,C2_KeyboardLike,8,learning,149,1,1,8,8,니은,ㄴ,지읒,top1,0,0.9731445000506938,4.175103187561035,"[[""지읒"", 0.3068543479655872], [""비읍"", 0.16508372932142684], [""디귿"", 0.11353165618228189], [""시옷"", 0.1042436877178283], [""기역"", 0.07431666498275932]]",1780410069.4987175,data\logs\subject_001_20260602_183742.csv,High-schema,P8 elbow-center,1.0,,1.0,1.0,1.0
1,20260602_183742,3,C2_KeyboardLike,8,learning,150,2,1,9,7,디귿,ㄷ,비읍,top1,0,1.7445940000470728,2.984137535095215,"[[""비읍"", 0.22728541877880057], [""디귿"", 0.18522953289504537], [""지읒"", 0.16831956033093545], [""미음"", 0.1663727540525053], [""니은"", 0.07255412648974444]]",1780410075.398811,data\logs\subject_001_20260602_183742.csv,High-schema,P9 elbow-right,2.0,,1.0,1.0,1.0
1,20260602_183742,3,C2_KeyboardLike,8,learning,151,3,1,3,1,지읒,ㅈ,이응,top2,0,1.8958660999778656,3.328711032867432,"[[""미음"", 0.42740456978803637], [""이응"", 0.2398913984565334], [""비읍"", 0.10766304081620902], [""리을"", 0.0606609998853067], [""니은"", 0.04911868926606395]]",1780410081.321045,data\logs\subject_001_20260602_183742.csv,High-schema,P3 wrist-right,3.0,,1.0,1.0,1.0
1,20260602_183742,3,C2_KeyboardLike,8,learning,152,4,1,2,2,이응,ㅇ,이응,top2,1,2.2272622999735177,3.564321517944336,"[[""미음"", 0.26045190556338127], [""이응"", 0.22960429233026983], [""리을"", 0.13678537783121617], [""비읍"", 0.10189854524161952], [""니은"", 0.10125140142760247]]",1780410085.8544269,data\logs\subject_001_20260602_183742.csv,High-schema,P2 wrist-center,4.0,,1.0,1.0,1.0
1,20260602_183742,3,C2_KeyboardLike,8,learning,153,5,1,6,4,비읍,ㅂ,리을,top1,0,2.165923799853772,3.371983289718628,"[[""리을"", 0.3659425983986256], [""니은"", 0.20733091569050754], [""미음"", 0.18255524939453774], [""비읍"", 0.05093823983537861], [""이응"", 0.05015271650511088]]",1780410090.11499,data\logs\subject_001_20260602_183742.csv,High-schema,P6 mid-right,5.0,,1.0,1.0,1.0
1,20260602_183742,3,C2_KeyboardLike,8,learning,154,6,1,7,9,기역,ㄱ,디귿,top1,0,1.9250797000713649,2.944689989089966,"[[""디귿"", 0.31039062747274704], [""비읍"", 0.22112145923606902], [""미음"", 0.11734264839595863], [""지읒"", 0.1048828824848244], [""니은"", 0.07841076284749994]]",1780410093.8919606,data\logs\subject_001_20260602_183742.csv,High-schema,P7 elbow-left,6.0,,1.0,1.0,1.0
1,20260602_183742,3,C2_KeyboardLike,8,learning,155,7,1,4,6,리을,ㄹ,리을,top1,1,1.415517200017348,2.735591173171997,"[[""리을"", 0.2546217874894884], [""미음"", 0.23185622826838687], [""비읍"", 0.11840120863733632], [""니은"", 0.09244973893701651], [""이응"", 0.07949008237425038]]",1780410097.3665097,data\logs\subject_001_20260602_183742.csv,High-schema,P4 mid-left,7.0,,1.0,1.0,1.0
1,20260602_183742,3,C2_KeyboardLike,8,learning,156,8,1,5,5,미음,ㅁ,비읍,top4,0,1.8952736998908224,3.8046607971191406,"[[""미음"", 0.29021980139333353], [""니은"", 0.15208222222497042], [""지읒"", 0.14283535774823022], [""비읍"", 0.09162413253113222], [""리을"", 0.08400190070544156]]",1780410101.8999393,data\logs\subject_001_20260602_183742.csv,High-schema,P5 mid-center,8.0,,1.0,1.0,1.0
1,20260602_183742,3,C2_KeyboardLike,8,learning,157,9,1,1,3,시옷,ㅅ,미음,top4,0,2.4355478999204934,10.260266304016112,"[[""디귿"", 0.25340780807245145], [""니은"", 0.17197184487389172], [""비읍"", 0.1400474395315166], [""미음"", 0.13964866917053012], [""리을"", 0.10353106034293796]]",1780410113.1893425,data\logs\subject_001_20260602_183742.csv,High-schema,P1 wrist-left,9.0,,1.0,1.0,1.0
1,20260602_183742,3,C2_KeyboardLike,8,learning,158,10,2,2,2,이응,ㅇ,이응,top1,1,2.6482907000463456,3.789231300354004,"[[""이응"", 0.25521305670225763], [""비읍"", 0.18893579596162735], [""미음"", 0.17854763125149192], [""디귿"", 0.09148167009809144], [""지읒"", 0.0848060393805926]]",1780410117.9011316,data\logs\subject_001_20260602_183742.csv,High-schema,P2 wrist-center,10.0,,2.0,2.0,2.0
1,20260602_183742,3,C2_KeyboardLike,8,learning,159,11,2,6,4,비읍,ㅂ,비읍,top1,1,3.2192486999556422,4.501504421234131,"[[""비읍"", 0.2777756200812736], [""니은"", 0.16522973184366493], [""지읒"", 0.13951891663987948], [""미음"", 0.1379044374479915], [""디귿"", 0.06980478933393769]]",1780410123.116581,data\logs\subject_001_20260602_183742.csv,High-schema,P6 mid-right,11.0,,2.0,2.0,2.0
1,20260602_183742,3,C2_KeyboardLike,8,learning,160,12,2,1,3,시옷,ㅅ,시옷,top1,1,1.7772361000534147,2.9500961303710938,"[[""시옷"", 0.296136933355785], [""지읒"", 0.25489546048819206], [""기역"", 0.14823009877223442], [""비읍"", 0.0916233178410445], [""디귿"", 0.06193522008569996]]",1780410126.7774503,data\logs\subject_001_20260602_183742.csv,High-schema,P1 wrist-left,12.0,,2.0,2.0,2.0
1,20260602_183742,3,C2_KeyboardLike,8,learning,161,13,2,8,8,니은,ㄴ,니은,manual,1,1.1752255000174046,5.076047420501709,"[[""미음"", 0.2376649717539749], [""리을"", 0.2170164727092059], [""비읍"", 0.14529890440330268], [""이응"", 0.14422707373090873], [""디귿"", 0.07185682259941523]]",1780410132.498247,data\logs\subject_001_20260602_183742.csv,High-schema,P8 elbow-center,13.0,,2.0,2.0,2.0
1,20260602_183742,3,C2_KeyboardLike,8,learning,162,14,2,4,6,리을,ㄹ,리을,top1,1,1.8977838000282643,3.0893497467041016,"[[""리을"", 0.22647309758774556], [""니은"", 0.17203520272762854], [""지읒"", 0.15316909266067094], [""미음"", 0.14224907087759697], [""디귿"", 0.08907975183185117]]",1780410136.6451538,data\logs\subject_001_20260602_183742.csv,High-schema,P4 mid-left,14.0,,2.0,2.0,2.0
1,20260602_183742,3,C2_KeyboardLike,8,learning,163,15,2,9,7,디귿,ㄷ,기역,top3,0,1.207785400096327,2.904491662979126,"[[""지읒"", 0.3539545559295663], [""비읍"", 0.23105428396820765], [""기역"", 0.14200813294486575], [""시옷"", 0.06663648684787013], [""미음"", 0.06658045235039171]]",1780410140.0797536,data\logs\subject_001_20260602_183742.csv,High-schema,P9 elbow-right,15.0,,2.0,2.0,2.0
1,20260602_183742,3,C2_KeyboardLike,8,learning,164,16,2,5,5,미음,ㅁ,미음,top1,1,2.4082967001013458,3.7872467041015625,"[[""미음"", 0.36788356665617494], [""비읍"", 0.12778778077857272], [""니은"", 0.11219925112182783], [""이응"", 0.09699517549129906], [""지읒"", 0.09452893204312121]]",1780410144.9383888,data\logs\subject_001_20260602_183742.csv,High-schema,P5 mid-center,16.0,,2.0,2.0,2.0
1,20260602_183742,3,C2_KeyboardLike,8,learning,165,17,2,3,1,지읒,ㅈ,시옷,top1,0,1.6560166999697683,2.758206367492676,"[[""시옷"", 0.3206074903668093], [""지읒"", 0.15053595107510317], [""비읍"", 0.12802652737237785], [""기역"", 0.09145896345930801], [""미음"", 0.08563693522225974]]",1780410148.5836246,data\logs\subject_001_20260602_183742.csv,High-schema,P3 wrist-right,17.0,,2.0,2.0,2.0
1,20260602_183742,3,C2_KeyboardLike,8,learning,166,18,2,7,9,기역,ㄱ,디귿,manual,0,1.144093800103292,4.356478929519653,"[[""비읍"", 0.20912078506208667], [""지읒"", 0.16052881446756231], [""미음"", 0.14453697282590366], [""시옷"", 0.12833714795994497], [""이응"", 0.09297613511272064]]",1780410153.5618842,data\logs\subject_001_20260602_183742.csv,High-schema,P7 elbow-left,18.0,,2.0,2.0,2.0
1,20260602_183742,3,C2_KeyboardLike,8,learning,167,19,3,4,6,리을,ㄹ,리을,top1,1,2.1392745000775903,3.487694263458252,"[[""리을"", 0.2300153960195363], [""디귿"", 0.2115510862759562], [""니은"", 0.16339353528602418], [""비읍"", 0.11058453999680024], [""미음"", 0.07157770008752605]]",1780410158.2998214,data\logs\subject_001_20260602_183742.csv,High-schema,P4 mid-left,19.0,,3.0,3.0,3.0
1,20260602_183742,3,C2_KeyboardLike,8,learning,168,20,3,7,9,기역,ㄱ,기역,top4,1,1.0560554000549018,2.394488573074341,"[[""비읍"", 0.33138021611889673], [""지읒"", 0.16613925684029884], [""시옷"", 0.11857018065428601], [""기역"", 0.09319195850674439], [""이응"", 0.08787675598206979]]",1780410161.2631426,data\logs\subject_001_20260602_183742.csv,High-schema,P7 elbow-left,20.0,,3.0,3.0,3.0
1,20260602_183742,3,C2_KeyboardLike,8,learning,169,21,3,6,4,비읍,ㅂ,지읒,top1,0,2.918293199967593,3.988303899765015,"[[""지읒"", 0.5392584337687335], [""기역"", 0.13670814345924154], [""디귿"", 0.06323102847312947], [""비읍"", 0.062494309779188455], [""시옷"", 0.05374081355336953]]",1780410166.238577,data\logs\subject_001_20260602_183742.csv,High-schema,P6 mid-right,21.0,,3.0,3.0,3.0
1,20260602_183742,3,C2_KeyboardLike,8,learning,170,22,3,3,1,지읒,ㅈ,지읒,top1,1,1.058657499961555,2.2461891174316406,"[[""지읒"", 0.4490953077466248], [""비읍"", 0.10723870545371411], [""디귿"", 0.102303731493782], [""기역"", 0.09558825075090582], [""시옷"", 0.07452281179668523]]",1780410168.9968235,data\logs\subject_001_20260602_183742.csv,High-schema,P3 wrist-right,22.0,,3.0,3.0,3.0
1,20260602_183742,3,C2_KeyboardLike,8,learning,171,23,3,5,5,미음,ㅁ,이응,top1,0,1.2354917000047865,2.3923180103302,"[[""이응"", 0.24248036128986636], [""미음"", 0.1830033027134671], [""비읍"", 0.17927582363771094], [""니은"", 0.11376517685651415], [""리을"", 0.09152196058080203]]",1780410171.983816,data\logs\subject_001_20260602_183742.csv,High-schema,P5 mid-center,23.0,,3.0,3.0,3.0
1,20260602_183742,3,C2_KeyboardLike,8,learning,172,24,3,1,3,시옷,ㅅ,시옷,top3,1,1.5950235999189315,3.0901832580566406,"[[""지읒"", 0.2230659732755686], [""비읍"", 0.16632368637175174], [""시옷"", 0.13297235252912937], [""미음"", 0.12844640865335072], [""디귿"", 0.07999551934148404]]",1780410176.0987744,data\logs\subject_001_20260602_183742.csv,High-schema,P1 wrist-left,24.0,,3.0,3.0,3.0
1,20260602_183742,3,C2_KeyboardLike,8,learning,173,25,3,9,7,디귿,ㄷ,디귿,top1,1,1.504767700098455,3.117981433868408,"[[""디귿"", 0.39498462281691643], [""비읍"", 0.24404513340995698], [""니은"", 0.07677040573607034], [""지읒"", 0.0713319112540335], [""시옷"", 0.05583475343998777]]",1780410179.7578125,data\logs\subject_001_20260602_183742.csv,High-schema,P9 elbow-right,25.0,,3.0,3.0,3.0
1,20260602_183742,3,C2_KeyboardLike,8,learning,174,26,3,8,8,니은,ㄴ,니은,top2,1,1.1489126000087708,2.5860841274261475,"[[""미음"", 0.21249953218956047], [""니은"", 0.161178444034566], [""이응"", 0.12994794771246118], [""지읒"", 0.12955113609019703], [""비읍"", 0.12603954712539447]]",1780410182.9712243,data\logs\subject_001_20260602_183742.csv,High-schema,P8 elbow-center,26.0,,3.0,3.0,3.0
1,20260602_183742,3,C2_KeyboardLike,8,learning,175,27,3,2,2,이응,ㅇ,이응,top4,1,1.4776407999452204,2.761780261993408,"[[""비읍"", 0.2615812935214017], [""미음"", 0.1825018843871657], [""지읒"", 0.15038273094099863], [""이응"", 0.12481489126286016], [""니은"", 0.08600469297143828]]",1780410186.3432171,data\logs\subject_001_20260602_183742.csv,High-schema,P2 wrist-center,27.0,,3.0,3.0,3.0
1,20260602_183742,3,C2_KeyboardLike,8,learning,176,28,4,8,8,니은,ㄴ,니은,top4,1,1.0278642000630498,2.517957925796509,"[[""이응"", 0.1983637768523965], [""미음"", 0.19806300862279747], [""비읍"", 0.18939713717535478], [""니은"", 0.16871458214600518], [""리을"", 0.08088741247943429]]",1780410189.6482356,data\logs\subject_001_20260602_183742.csv,High-schema,P8 elbow-center,28.0,,4.0,4.0,4.0
1,20260602_183742,3,C2_KeyboardLike,8,learning,177,29,4,4,6,리을,ㄹ,리을,top2,1,0.9687666001264006,2.346285343170166,"[[""미음"", 0.2740977345964493], [""리을"", 0.19494009188346292], [""비읍"", 0.16875575078721092], [""니은"", 0.122623371691418], [""이응"", 0.09461036044992398]]",1780410192.6209495,data\logs\subject_001_20260602_183742.csv,High-schema,P4 mid-left,29.0,,4.0,4.0,4.0
1,20260602_183742,3,C2_KeyboardLike,8,learning,178,30,4,7,9,기역,ㄱ,기역,top3,1,0.9671930999029428,2.6431384086608887,"[[""지읒"", 0.2728611464645617], [""비읍"", 0.2464211847912045], [""기역"", 0.18807023754414756], [""디귿"", 0.1335809848024517], [""시옷"", 0.09196601063593698]]",1780410195.7876742,data\logs\subject_001_20260602_183742.csv,High-schema,P7 elbow-left,30.0,,4.0,4.0,4.0
1,20260602_183742,3,C2_KeyboardLike,8,learning,179,31,4,6,4,비읍,ㅂ,비읍,top3,1,2.91861049993895,5.088712215423584,"[[""지읒"", 0.3126826343832786], [""시옷"", 0.22185653880567432], [""비읍"", 0.1467812587952484], [""기역"", 0.09033870033292501], [""디귿"", 0.0793373920531185]]",1780410201.3739352,data\logs\subject_001_20260602_183742.csv,High-schema,P6 mid-right,31.0,,4.0,4.0,4.0
1,20260602_183742,3,C2_KeyboardLike,8,learning,180,32,4,2,2,이응,ㅇ,이응,top5,1,1.7141857000533491,3.712306022644043,"[[""비읍"", 0.21381365844677236], [""니은"", 0.17078485369734495], [""미음"", 0.16134310920828535], [""지읒"", 0.13267001807814194], [""이응"", 0.10077765374344734]]",1780410205.7201672,data\logs\subject_001_20260602_183742.csv,High-schema,P2 wrist-center,32.0,,4.0,4.0,4.0
1,20260602_183742,3,C2_KeyboardLike,8,learning,181,33,4,9,7,디귿,ㄷ,디귿,top3,1,1.0884626999031752,3.160651922225952,"[[""비읍"", 0.3743227463483938], [""지읒"", 0.24414989243341922], [""디귿"", 0.11151874312602479], [""미음"", 0.07005714259316562], [""니은"", 0.06370770378925761]]",1780410209.426265,data\logs\subject_001_20260602_183742.csv,High-schema,P9 elbow-right,33.0,,4.0,4.0,4.0
1,20260602_183742,3,C2_KeyboardLike,8,learning,182,34,4,3,1,지읒,ㅈ,지읒,top1,1,3.394688999978825,4.55225944519043,"[[""지읒"", 0.4141685194983258], [""시옷"", 0.1033499230608284], [""미음"", 0.08969144833288634], [""비읍"", 0.08722745675708575], [""디귿"", 0.0822022129419851]]",1780410214.504168,data\logs\subject_001_20260602_183742.csv,High-schema,P3 wrist-right,34.0,,4.0,4.0,4.0
1,20260602_183742,3,C2_KeyboardLike,8,learning,183,35,4,5,5,미음,ㅁ,미음,manual,1,1.2653534000273794,4.314722537994385,"[[""지읒"", 0.6072330424209984], [""비읍"", 0.0933759697168216], [""시옷"", 0.06611992549285739], [""니은"", 0.05867224999694344], [""이응"", 0.04914251177753674]]",1780410219.8488522,data\logs\subject_001_20260602_183742.csv,High-schema,P5 mid-center,35.0,,4.0,4.0,4.0
1,20260602_183742,3,C2_KeyboardLike,8,learning,184,36,4,1,3,시옷,ㅅ,시옷,top1,1,1.775669900001958,3.238922357559204,"[[""시옷"", 0.20087867616044763], [""지읒"", 0.19616752270203308], [""비읍"", 0.18595504188111295], [""기역"", 0.14902580972721355], [""디귿"", 0.07545228885019946]]",1780410224.2459989,data\logs\subject_001_20260602_183742.csv,High-schema,P1 wrist-left,36.0,,4.0,4.0,4.0
1,20260602_183742,3,C2_KeyboardLike,8,learning,185,37,5,3,1,지읒,ㅈ,지읒,top1,1,1.1790266998577863,2.937079429626465,"[[""지읒"", 0.2890945741655631], [""기역"", 0.157750171451841], [""비읍"", 0.12945021144694413], [""시옷"", 0.11540691816925343], [""디귿"", 0.10885431930813433]]",1780410227.7649984,data\logs\subject_001_20260602_183742.csv,High-schema,P3 wrist-right,37.0,,5.0,5.0,5.0
1,20260602_183742,3,C2_KeyboardLike,8,learning,186,38,5,6,4,비읍,ㅂ,비읍,top1,1,2.7957786000333726,3.751157999038696,"[[""비읍"", 0.5280865287453592], [""디귿"", 0.10880929594735231], [""미음"", 0.08172595603958524], [""지읒"", 0.07620103113289198], [""니은"", 0.05875961368261053]]",1780410232.0519493,data\logs\subject_001_20260602_183742.csv,High-schema,P6 mid-right,38.0,,5.0,5.0,5.0
1,20260602_183742,3,C2_KeyboardLike,8,learning,187,39,5,1,3,시옷,ㅅ,시옷,top2,1,1.8688523001037536,3.281170606613159,"[[""지읒"", 0.36521730056102214], [""시옷"", 0.1669231512796771], [""비읍"", 0.0997515799101067], [""기역"", 0.09426749600135857], [""미음"", 0.06908989259904019]]",1780410235.856629,data\logs\subject_001_20260602_183742.csv,High-schema,P1 wrist-left,39.0,,5.0,5.0,5.0
1,20260602_183742,3,C2_KeyboardLike,8,learning,188,40,5,4,6,리을,ㄹ,리을,top2,1,1.8646821998991072,3.370206356048584,"[[""디귿"", 0.31224473386015483], [""리을"", 0.1799191848923691], [""니은"", 0.13033514910479457], [""미음"", 0.12853795608190444], [""비읍"", 0.08893261921889611]]",1780410239.7158618,data\logs\subject_001_20260602_183742.csv,High-schema,P4 mid-left,40.0,,5.0,5.0,5.0
1,20260602_183742,3,C2_KeyboardLike,8,learning,189,41,5,8,8,니은,ㄴ,니은,top3,1,1.1450668999459594,2.876020193099976,"[[""미음"", 0.4845548452768586], [""비읍"", 0.14180551745815784], [""니은"", 0.08033225029323587], [""리을"", 0.07459073470473263], [""디귿"", 0.0666378316647509]]",1780410243.1600769,data\logs\subject_001_20260602_183742.csv,High-schema,P8 elbow-center,41.0,,5.0,5.0,5.0
1,20260602_183742,3,C2_KeyboardLike,8,learning,190,42,5,7,9,기역,ㄱ,기역,top3,1,0.8484984999522567,2.5918545722961426,"[[""비읍"", 0.29442496311546196], [""지읒"", 0.16566517807814518], [""기역"", 0.15098355446703632], [""시옷"", 0.1378527320388616], [""디귿"", 0.08112376753657959]]",1780410246.2260413,data\logs\subject_001_20260602_183742.csv,High-schema,P7 elbow-left,42.0,,5.0,5.0,5.0
1,20260602_183742,3,C2_KeyboardLike,8,learning,191,43,5,5,5,미음,ㅁ,미음,top1,1,1.6272213999181986,2.8518011569976807,"[[""미음"", 0.25333110674951453], [""비읍"", 0.1963386005738256], [""이응"", 0.14854274933556286], [""디귿"", 0.09650685047915979], [""지읒"", 0.09581180247270236]]",1780410249.5581028,data\logs\subject_001_20260602_183742.csv,High-schema,P5 mid-center,43.0,,5.0,5.0,5.0
1,20260602_183742,3,C2_KeyboardLike,8,learning,192,44,5,9,7,디귿,ㄷ,디귿,top3,1,1.086245199898258,2.712797164916992,"[[""비읍"", 0.3818832794408939], [""지읒"", 0.1219886300550764], [""디귿"", 0.11481845319507589], [""니은"", 0.10949652197458525], [""미음"", 0.08499536095998826]]",1780410252.8029592,data\logs\subject_001_20260602_183742.csv,High-schema,P9 elbow-right,44.0,,5.0,5.0,5.0
1,20260602_183742,3,C2_KeyboardLike,8,learning,193,45,5,2,2,이응,ㅇ,이응,manual,1,1.2950726998969913,4.933783054351807,"[[""비읍"", 0.23056551463897665], [""미음"", 0.1589934542499251], [""니은"", 0.13654715204729248], [""기역"", 0.11042818729960503], [""지읒"", 0.10615874491844948]]",1780410258.8130634,data\logs\subject_001_20260602_183742.csv,High-schema,P2 wrist-center,45.0,,5.0,5.0,5.0
1,20260602_183742,3,C2_KeyboardLike,8,retention,194,46,6,1,3,시옷,ㅅ,시옷,top2,1,1.3842234001494944,2.865018844604492,"[[""지읒"", 0.21456241193239917], [""시옷"", 0.2089175470034267], [""비읍"", 0.15627432906481434], [""미음"", 0.10480739641925256], [""기역"", 0.09328982982254509]]",1780410262.9016368,data\logs\subject_001_20260602_183742.csv,High-schema,P1 wrist-left,,1.0,,,
1,20260602_183742,3,C2_KeyboardLike,8,retention,195,47,6,9,7,디귿,ㄷ,디귿,top1,1,2.1663508999627084,3.2712531089782715,"[[""디귿"", 0.41307900888861065], [""비읍"", 0.14818265963127394], [""니은"", 0.11885497540313378], [""리을"", 0.0797451795504688], [""지읒"", 0.07111231459818979]]",1780410266.9735782,data\logs\subject_001_20260602_183742.csv,High-schema,P9 elbow-right,,2.0,,,
1,20260602_183742,3,C2_KeyboardLike,8,retention,196,48,6,6,4,비읍,ㅂ,비읍,top3,1,1.2087699000258,2.815203666687012,"[[""미음"", 0.2742151227047836], [""지읒"", 0.25889467331289623], [""비읍"", 0.1443650569064821], [""니은"", 0.09172145978681338], [""디귿"", 0.07847885578396153]]",1780410270.7891152,data\logs\subject_001_20260602_183742.csv,High-schema,P6 mid-right,,3.0,,,
1,20260602_183742,3,C2_KeyboardLike,8,retention,197,49,6,7,9,기역,ㄱ,기역,top3,1,1.1802768998313695,2.6219851970672607,"[[""비읍"", 0.40496999228390373], [""시옷"", 0.18942313335064195], [""기역"", 0.09451822607934716], [""지읒"", 0.07938354908613017], [""디귿"", 0.07174011414249659]]",1780410273.988279,data\logs\subject_001_20260602_183742.csv,High-schema,P7 elbow-left,,4.0,,,
1,20260602_183742,3,C2_KeyboardLike,8,retention,198,50,6,3,1,지읒,ㅈ,지읒,top1,1,1.1182134000118822,4.357115507125855,"[[""지읒"", 0.6937062009824985], [""시옷"", 0.059102504617078236], [""비읍"", 0.0494544888358557], [""기역"", 0.047372436219738454], [""미음"", 0.04172385301038164]]",1780410278.8469894,data\logs\subject_001_20260602_183742.csv,High-schema,P3 wrist-right,,5.0,,,
1,20260602_183742,3,C2_KeyboardLike,8,retention,199,51,6,5,5,미음,ㅁ,미음,top1,1,1.2990214999299496,2.445545196533203,"[[""미음"", 0.2680123320066441], [""이응"", 0.17201749729355892], [""비읍"", 0.1280732540550854], [""디귿"", 0.08895022160649313], [""지읒"", 0.08511054696042923]]",1780410282.1149633,data\logs\subject_001_20260602_183742.csv,High-schema,P5 mid-center,,6.0,,,
1,20260602_183742,3,C2_KeyboardLike,8,retention,200,52,6,2,2,이응,ㅇ,이응,top3,1,0.8480831999331713,2.2945990562438965,"[[""비읍"", 0.27552003326450325], [""미음"", 0.18648147206173235], [""이응"", 0.14070922067790353], [""지읒"", 0.12316360703722719], [""리을"", 0.09058256817339262]]",1780410284.9967473,data\logs\subject_001_20260602_183742.csv,High-schema,P2 wrist-center,,7.0,,,
1,20260602_183742,3,C2_KeyboardLike,8,retention,201,53,6,4,6,리을,ㄹ,리을,top1,1,1.1462727000471205,2.399505138397217,"[[""리을"", 0.26582895254757943], [""니은"", 0.14685578215581307], [""지읒"", 0.12168429661216558], [""비읍"", 0.11935332648602259], [""디귿"", 0.11497567018962743]]",1780410287.875453,data\logs\subject_001_20260602_183742.csv,High-schema,P4 mid-left,,8.0,,,
1,20260602_183742,3,C2_KeyboardLike,8,retention,202,54,6,3,1,지읒,ㅈ,지읒,top1,1,0.9966126000508666,2.083301305770874,"[[""지읒"", 0.435739744283826], [""비읍"", 0.18408723042461317], [""니은"", 0.07641395426854589], [""기역"", 0.07373916680791767], [""디귿"", 0.06470722955512802]]",1780410290.8821626,data\logs\subject_001_20260602_183742.csv,High-schema,P3 wrist-right,,9.0,,,
1,20260602_183742,3,C2_KeyboardLike,8,retention,203,55,7,5,5,미음,ㅁ,미음,top4,1,2.1653046999126677,4.264714002609253,"[[""비읍"", 0.2051888511436678], [""지읒"", 0.1568781826649412], [""디귿"", 0.1477771218374653], [""미음"", 0.11502394521528493], [""니은"", 0.10563164828094183]]",1780410295.6626327,data\logs\subject_001_20260602_183742.csv,High-schema,P5 mid-center,,10.0,,,
1,20260602_183742,3,C2_KeyboardLike,8,retention,204,56,7,9,7,디귿,ㄷ,디귿,top2,1,1.1776417000219226,2.352172613143921,"[[""비읍"", 0.30723083674961627], [""디귿"", 0.22219647316770277], [""지읒"", 0.16187485446622016], [""미음"", 0.08485323006260508], [""니은"", 0.08046501017309793]]",1780410298.5156596,data\logs\subject_001_20260602_183742.csv,High-schema,P9 elbow-right,,11.0,,,
1,20260602_183742,3,C2_KeyboardLike,8,retention,205,57,7,8,8,니은,ㄴ,니은,top5,1,0.848556200042367,2.6089155673980717,"[[""미음"", 0.24121789421445086], [""이응"", 0.14123094834429267], [""비읍"", 0.139130999568302], [""지읒"", 0.12051042983500702], [""니은"", 0.1070085995663762]]",1780410301.631271,data\logs\subject_001_20260602_183742.csv,High-schema,P8 elbow-center,,12.0,,,
1,20260602_183742,3,C2_KeyboardLike,8,retention,206,58,7,1,3,시옷,ㅅ,시옷,top3,1,1.6890688000712544,3.1293952465057373,"[[""지읒"", 0.40765510364800855], [""비읍"", 0.34700297096970734], [""시옷"", 0.07418358175720965], [""이응"", 0.03831191077077265], [""미음"", 0.0349643377947456]]",1780410305.2740672,data\logs\subject_001_20260602_183742.csv,High-schema,P1 wrist-left,,13.0,,,
1,20260602_183742,3,C2_KeyboardLike,8,retention,207,59,7,7,9,기역,ㄱ,기역,top2,1,0.8170070999767631,2.1024491786956787,"[[""시옷"", 0.24565239897641236], [""기역"", 0.2244273303613051], [""비읍"", 0.1596680849388911], [""지읒"", 0.13698060854638622], [""이응"", 0.0702086627759367]]",1780410307.8349652,data\logs\subject_001_20260602_183742.csv,High-schema,P7 elbow-left,,14.0,,,
1,20260602_183742,3,C2_KeyboardLike,8,retention,208,60,7,2,2,이응,ㅇ,이응,top3,1,2.529744500061497,4.124140024185181,"[[""미음"", 0.28311177590197767], [""비읍"", 0.16762122066502508], [""이응"", 0.1551392044679266], [""니은"", 0.0985080057826804], [""디귿"", 0.0890117452260412]]",1780410312.6988704,data\logs\subject_001_20260602_183742.csv,High-schema,P2 wrist-center,,15.0,,,
1,20260602_183742,3,C2_KeyboardLike,8,retention,209,61,7,8,8,니은,ㄴ,니은,top3,1,0.8486099999863654,2.7020559310913086,"[[""비읍"", 0.24113106857055808], [""미음"", 0.1610126868008886], [""니은"", 0.14869411737544153], [""이응"", 0.14059002090039868], [""디귿"", 0.10685355178804123]]",1780410315.892028,data\logs\subject_001_20260602_183742.csv,High-schema,P8 elbow-center,,16.0,,,
1,20260602_183742,3,C2_KeyboardLike,8,retention,210,62,7,6,4,비읍,ㅂ,비읍,top1,1,1.239908599993214,2.235283374786377,"[[""비읍"", 0.19268662259289618], [""미음"", 0.17992659242288703], [""지읒"", 0.16060058505300695], [""니은"", 0.11928676078959347], [""이응"", 0.11348078497737862]]",1780410318.5904255,data\logs\subject_001_20260602_183742.csv,High-schema,P6 mid-right,,17.0,,,
1,20260602_183742,3,C2_KeyboardLike,8,retention,211,63,7,4,6,리을,ㄹ,리을,top2,1,1.1185423999559134,2.449073076248169,"[[""미음"", 0.30390655323344495], [""리을"", 0.1688780934707176], [""비읍"", 0.1204550097886982], [""니은"", 0.10279997835385854], [""이응"", 0.08222877733858627]]",1780410321.770672,data\logs\subject_001_20260602_183742.csv,High-schema,P4 mid-left,,18.0,,,
1,20260602_183742,4,C5_LowA,1,learning,212,1,1,9,7,미음,ㅁ,기역,top4,0,1.2095141001045704,3.576279401779175,"[[""지읒"", 0.29354141587211896], [""비읍"", 0.2044965898249955], [""디귿"", 0.14447240040735837], [""기역"", 0.09431678664853048], [""미음"", 0.07799756494223742]]",1780410344.380466,data\logs\subject_001_20260602_183742.csv,Low-order,P9 elbow-right,1.0,,1.0,1.0,1.0
1,20260602_183742,4,C5_LowA,1,learning,213,2,1,2,2,리을,ㄹ,니은,top5,0,0.9394996000919492,3.4061105251312256,"[[""미음"", 0.3596716280239283], [""지읒"", 0.192662046738822], [""리을"", 0.0965892219862816], [""이응"", 0.07867212738348656], [""니은"", 0.07823766832591984]]",1780410349.4207034,data\logs\subject_001_20260602_183742.csv,Low-order,P2 wrist-center,2.0,,1.0,1.0,1.0
1,20260602_183742,4,C5_LowA,1,learning,214,3,1,5,5,디귿,ㄷ,이응,top2,0,1.148526200093329,2.520962715148926,"[[""미음"", 0.22869563381260824], [""이응"", 0.17273275466068827], [""비읍"", 0.12588635640828788], [""지읒"", 0.1137171644754682], [""리을"", 0.10523913938821895]]",1780410354.0554514,data\logs\subject_001_20260602_183742.csv,Low-order,P5 mid-center,3.0,,1.0,1.0,1.0
1,20260602_183742,4,C5_LowA,1,learning,215,4,1,7,9,비읍,ㅂ,지읒,top1,0,1.4464687001891434,2.6050825119018555,"[[""지읒"", 0.43647036606666295], [""비읍"", 0.13358885963820158], [""디귿"", 0.09430076825782958], [""시옷"", 0.08433823930255618], [""미음"", 0.06717409927246476]]",1780410360.1711824,data\logs\subject_001_20260602_183742.csv,Low-order,P7 elbow-left,4.0,,1.0,1.0,1.0
1,20260602_183742,4,C5_LowA,1,learning,216,5,1,4,6,시옷,ㅅ,지읒,top1,0,1.2720978998113424,2.3444881439208984,"[[""지읒"", 0.43067905814788776], [""미음"", 0.10582755078545657], [""시옷"", 0.09296977704486743], [""디귿"", 0.08523208910906308], [""비읍"", 0.08065031384087788]]",1780410363.71549,data\logs\subject_001_20260602_183742.csv,Low-order,P4 mid-left,5.0,,1.0,1.0,1.0
1,20260602_183742,4,C5_LowA,1,learning,217,6,1,8,8,지읒,ㅈ,디귿,top2,0,1.3848558999598026,2.5356101989746094,"[[""미음"", 0.2515466466730576], [""디귿"", 0.16800222435930695], [""비읍"", 0.16597342297132034], [""지읒"", 0.1025373348810732], [""니은"", 0.09817170390824648]]",1780410367.4626331,data\logs\subject_001_20260602_183742.csv,Low-order,P8 elbow-center,6.0,,1.0,1.0,1.0
1,20260602_183742,4,C5_LowA,1,learning,218,7,1,6,4,니은,ㄴ,시옷,top3,0,1.5070286998525262,3.354159355163574,"[[""지읒"", 0.19115467064408614], [""비읍"", 0.18612168157469772], [""시옷"", 0.15834813392445954], [""미음"", 0.14292520904039308], [""디귿"", 0.08511353327641938]]",1780410372.441547,data\logs\subject_001_20260602_183742.csv,Low-order,P6 mid-right,7.0,,1.0,1.0,1.0
1,20260602_183742,4,C5_LowA,1,learning,219,8,1,1,3,이응,ㅇ,기역,top2,0,1.2342634999658912,2.8143422603607178,"[[""지읒"", 0.30152761399730543], [""기역"", 0.24487362417942043], [""비읍"", 0.11186354623715876], [""시옷"", 0.10027989983824812], [""미음"", 0.08291569951142064]]",1780410376.2702448,data\logs\subject_001_20260602_183742.csv,Low-order,P1 wrist-left,8.0,,1.0,1.0,1.0
1,20260602_183742,4,C5_LowA,1,learning,220,9,1,3,1,기역,ㄱ,니은,manual,0,2.0165474999230355,5.228613615036011,"[[""미음"", 0.3939565216853009], [""비읍"", 0.12929001174109067], [""리을"", 0.11365204359992873], [""디귿"", 0.09006130753198793], [""이응"", 0.0722030606708337]]",1780410382.6074584,data\logs\subject_001_20260602_183742.csv,Low-order,P3 wrist-right,9.0,,1.0,1.0,1.0
1,20260602_183742,4,C5_LowA,1,learning,221,10,2,2,2,리을,ㄹ,리을,top2,1,1.3858242998830974,2.989414930343628,"[[""미음"", 0.23398400862567562], [""리을"", 0.22195983529388089], [""디귿"", 0.14858070713934998], [""비읍"", 0.09206550449804246], [""니은"", 0.08374058496788396]]",1780410386.8276858,data\logs\subject_001_20260602_183742.csv,Low-order,P2 wrist-center,10.0,,2.0,2.0,2.0
1,20260602_183742,4,C5_LowA,1,learning,222,11,2,1,3,이응,ㅇ,이응,top4,1,2.1943291001953185,3.4488847255706787,"[[""지읒"", 0.2549245951223576], [""미음"", 0.2292320479844424], [""비읍"", 0.13941160681604728], [""이응"", 0.0944022855500324], [""시옷"", 0.07371180866356095]]",1780410391.6679611,data\logs\subject_001_20260602_183742.csv,Low-order,P1 wrist-left,11.0,,2.0,2.0,2.0
1,20260602_183742,4,C5_LowA,1,learning,223,12,2,9,7,미음,ㅁ,디귿,top2,0,1.7161563001573086,3.072386741638184,"[[""비읍"", 0.25592026735709755], [""디귿"", 0.24664467478721414], [""지읒"", 0.11630403670523798], [""미음"", 0.11228039338157894], [""니은"", 0.07951239323103869]]",1780410395.6157074,data\logs\subject_001_20260602_183742.csv,Low-order,P9 elbow-right,12.0,,2.0,2.0,2.0
1,20260602_183742,4,C5_LowA,1,learning,224,13,2,7,9,비읍,ㅂ,디귿,top2,0,1.1193230000790209,2.2864975929260254,"[[""비읍"", 0.27110832627405645], [""디귿"", 0.2371104620176426], [""지읒"", 0.16045785517727615], [""니은"", 0.08586118832394445], [""미음"", 0.08186468647931175]]",1780410399.0399785,data\logs\subject_001_20260602_183742.csv,Low-order,P7 elbow-left,13.0,,2.0,2.0,2.0
1,20260602_183742,4,C5_LowA,1,learning,225,14,2,4,6,시옷,ㅅ,디귿,top1,0,1.0271360001061112,2.057180643081665,"[[""디귿"", 0.452784686286676], [""비읍"", 0.2803250761997831], [""지읒"", 0.05443441501129812], [""니은"", 0.0461726821077105], [""미음"", 0.04515235264074624]]",1780410402.055401,data\logs\subject_001_20260602_183742.csv,Low-order,P4 mid-left,14.0,,2.0,2.0,2.0
1,20260602_183742,4,C5_LowA,1,learning,226,15,2,3,1,기역,ㄱ,디귿,top1,0,2.6157605999615043,3.5899477005004883,"[[""디귿"", 0.4748645838220089], [""지읒"", 0.1452945520987303], [""비읍"", 0.10270390679077875], [""미음"", 0.09841062296627237], [""니은"", 0.06769047462675484]]",1780410406.669348,data\logs\subject_001_20260602_183742.csv,Low-order,P3 wrist-right,15.0,,2.0,2.0,2.0
1,20260602_183742,4,C5_LowA,1,learning,227,16,2,5,5,디귿,ㄷ,지읒,top1,0,1.8395752001088117,2.946428775787353,"[[""지읒"", 0.32729761192295137], [""비읍"", 0.1569038968330631], [""미음"", 0.10795290684797446], [""시옷"", 0.1054963974581515], [""디귿"", 0.08757711413920612]]",1780410410.8477986,data\logs\subject_001_20260602_183742.csv,Low-order,P5 mid-center,16.0,,2.0,2.0,2.0
1,20260602_183742,4,C5_LowA,1,learning,228,17,2,6,4,니은,ㄴ,지읒,top1,0,1.540030000032857,3.001764297485352,"[[""지읒"", 0.38910108102562924], [""미음"", 0.13722223759081698], [""디귿"", 0.10641561795543221], [""리을"", 0.08774374288873318], [""시옷"", 0.08125612437074384]]",1780410414.800364,data\logs\subject_001_20260602_183742.csv,Low-order,P6 mid-right,17.0,,2.0,2.0,2.0
1,20260602_183742,4,C5_LowA,1,learning,229,18,2,8,8,지읒,ㅈ,지읒,top1,1,1.4761872000526637,2.484673261642456,"[[""지읒"", 0.5623689688796764], [""미음"", 0.1196104010427652], [""비읍"", 0.07408114588472658], [""디귿"", 0.05305891245757536], [""시옷"", 0.049946149461991336]]",1780410418.120457,data\logs\subject_001_20260602_183742.csv,Low-order,P8 elbow-center,18.0,,2.0,2.0,2.0
1,20260602_183742,4,C5_LowA,1,learning,230,19,3,4,6,시옷,ㅅ,비읍,top4,0,2.557194299995899,3.748533010482788,"[[""미음"", 0.2819166154891938], [""지읒"", 0.20135679371609808], [""리을"", 0.10576889777133555], [""비읍"", 0.10001692951112585], [""디귿"", 0.08671083733787617]]",1780410423.102588,data\logs\subject_001_20260602_183742.csv,Low-order,P4 mid-left,19.0,,3.0,3.0,3.0
1,20260602_183742,4,C5_LowA,1,learning,231,20,3,2,2,리을,ㄹ,리을,top5,1,1.537029400002211,3.551210641860962,"[[""미음"", 0.3038473934308895], [""지읒"", 0.13473590027464163], [""이응"", 0.12613028499506604], [""비읍"", 0.1200239322762393], [""리을"", 0.09216178393870166]]",1780410427.7452807,data\logs\subject_001_20260602_183742.csv,Low-order,P2 wrist-center,20.0,,3.0,3.0,3.0
1,20260602_183742,4,C5_LowA,1,learning,232,21,3,5,5,디귿,ㄷ,비읍,top2,0,2.0450453001540154,3.763864994049072,"[[""지읒"", 0.23541748331151457], [""비읍"", 0.15936019383447642], [""니은"", 0.15435041452592246], [""디귿"", 0.13156227565726655], [""미음"", 0.11489100261101469]]",1780410432.6826704,data\logs\subject_001_20260602_183742.csv,Low-order,P5 mid-center,21.0,,3.0,3.0,3.0
1,20260602_183742,4,C5_LowA,1,learning,233,22,3,8,8,지읒,ㅈ,미음,top1,0,2.168716199928894,3.4901115894317627,"[[""미음"", 0.285858874690618], [""니은"", 0.2598290820174446], [""리을"", 0.12264093855429663], [""비읍"", 0.08145091899365509], [""디귿"", 0.07707942670384464]]",1780410441.7003658,data\logs\subject_001_20260602_183742.csv,Low-order,P8 elbow-center,22.0,,3.0,3.0,3.0
1,20260602_183742,4,C5_LowA,1,learning,234,23,3,1,3,이응,ㅇ,리을,top1,0,1.6842782001476737,3.249462366104126,"[[""리을"", 0.27186315253966997], [""미음"", 0.193075521479718], [""니은"", 0.14912796403490036], [""비읍"", 0.11591322449820703], [""디귿"", 0.09377499889060045]]",1780410446.3332508,data\logs\subject_001_20260602_183742.csv,Low-order,P1 wrist-left,23.0,,3.0,3.0,3.0
1,20260602_183742,4,C5_LowA,1,learning,235,24,3,6,4,니은,ㄴ,미음,top1,0,1.9050865999888629,3.0263891220092773,"[[""미음"", 0.2207009532984469], [""비읍"", 0.20472282233221842], [""지읒"", 0.11992552171094453], [""이응"", 0.09558874985778952], [""디귿"", 0.08870390477850408]]",1780410450.3284109,data\logs\subject_001_20260602_183742.csv,Low-order,P6 mid-right,24.0,,3.0,3.0,3.0
1,20260602_183742,4,C5_LowA,1,learning,236,25,3,9,7,미음,ㅁ,미음,top1,1,1.4180167999584228,2.6053125858306885,"[[""미음"", 0.3552285184327158], [""비읍"", 0.12786742898897943], [""지읒"", 0.1272615058792684], [""디귿"", 0.12633228059470658], [""리을"", 0.0744533128051844]]",1780410453.9886634,data\logs\subject_001_20260602_183742.csv,Low-order,P9 elbow-right,25.0,,3.0,3.0,3.0
1,20260602_183742,4,C5_LowA,1,learning,237,26,3,7,9,비읍,ㅂ,비읍,top1,1,1.9276481000706556,3.032683849334717,"[[""비읍"", 0.33655819923526303], [""지읒"", 0.1916782763621545], [""미음"", 0.12257012127442338], [""디귿"", 0.09083278228064927], [""이응"", 0.07069717276595659]]",1780410458.1540694,data\logs\subject_001_20260602_183742.csv,Low-order,P7 elbow-left,26.0,,3.0,3.0,3.0
1,20260602_183742,4,C5_LowA,1,learning,238,27,3,3,1,기역,ㄱ,기역,top4,1,0.7290235999971628,2.225799560546875,"[[""비읍"", 0.36191430685499404], [""지읒"", 0.20688274798724848], [""디귿"", 0.10594392095784391], [""기역"", 0.08835656318791937], [""시옷"", 0.08388821683452201]]",1780410465.0501225,data\logs\subject_001_20260602_183742.csv,Low-order,P3 wrist-right,27.0,,3.0,3.0,3.0
1,20260602_183742,4,C5_LowA,1,learning,239,28,4,5,5,디귿,ㄷ,비읍,top2,0,2.377719799987972,3.933558702468872,"[[""미음"", 0.27633979397579356], [""비읍"", 0.14576667358504003], [""지읒"", 0.14433103760478397], [""니은"", 0.11484624292771604], [""이응"", 0.110364244639861]]",1780410469.692415,data\logs\subject_001_20260602_183742.csv,Low-order,P5 mid-center,28.0,,4.0,4.0,4.0
1,20260602_183742,4,C5_LowA,1,learning,240,29,4,6,4,니은,ㄴ,니은,top5,1,1.1483285001013428,3.96390962600708,"[[""미음"", 0.3890588192833555], [""리을"", 0.12489254074765163], [""이응"", 0.11471349027669654], [""비읍"", 0.10063852375020853], [""니은"", 0.07556241938858509]]",1780410474.9014912,data\logs\subject_001_20260602_183742.csv,Low-order,P6 mid-right,29.0,,4.0,4.0,4.0
1,20260602_183742,4,C5_LowA,1,learning,241,30,4,3,1,기역,ㄱ,기역,manual,1,0.93560880003497,4.846559762954712,"[[""비읍"", 0.3108206154904043], [""지읒"", 0.30273970073525], [""시옷"", 0.08302888902119125], [""미음"", 0.08232390526515906], [""이응"", 0.06712504469283492]]",1780410480.6811495,data\logs\subject_001_20260602_183742.csv,Low-order,P3 wrist-right,30.0,,4.0,4.0,4.0
1,20260602_183742,4,C5_LowA,1,learning,242,31,4,8,8,지읒,ㅈ,지읒,top1,1,2.703941399930045,3.823474407196045,"[[""지읒"", 0.5431412823396229], [""비읍"", 0.09155814966199381], [""기역"", 0.08454298203440237], [""시옷"", 0.07801255735562415], [""미음"", 0.06733299996270943]]",1780410485.5181284,data\logs\subject_001_20260602_183742.csv,Low-order,P8 elbow-center,31.0,,4.0,4.0,4.0
1,20260602_183742,4,C5_LowA,1,learning,243,32,4,1,3,이응,ㅇ,리을,top3,0,1.2640649999957532,3.125699281692505,"[[""이응"", 0.19485920708664803], [""니은"", 0.19273348489580525], [""리을"", 0.15572418213601025], [""미음"", 0.14272027052195865], [""비읍"", 0.0988126583833365]]",1780410489.396635,data\logs\subject_001_20260602_183742.csv,Low-order,P1 wrist-left,32.0,,4.0,4.0,4.0
1,20260602_183742,4,C5_LowA,1,learning,244,33,4,9,7,미음,ㅁ,미음,top1,1,1.0558278998360038,2.2897205352783203,"[[""미음"", 0.5990709971061161], [""니은"", 0.08643401493562447], [""비읍"", 0.07437913831036799], [""이응"", 0.0711450867257965], [""리을"", 0.05568236242776683]]",1780410492.6398191,data\logs\subject_001_20260602_183742.csv,Low-order,P9 elbow-right,33.0,,4.0,4.0,4.0
1,20260602_183742,4,C5_LowA,1,learning,245,34,4,2,2,리을,ㄹ,니은,top2,0,0.9393271000590177,2.4954819679260254,"[[""미음"", 0.3375593985965252], [""니은"", 0.16731617572474766], [""비읍"", 0.11788362518364758], [""리을"", 0.09179835724085665], [""지읒"", 0.07361995143354796]]",1780410495.6933725,data\logs\subject_001_20260602_183742.csv,Low-order,P2 wrist-center,34.0,,4.0,4.0,4.0
1,20260602_183742,4,C5_LowA,1,learning,246,35,4,4,6,시옷,ㅅ,비읍,top1,0,2.1391222001984715,3.1587915420532227,"[[""비읍"", 0.3500829686781201], [""미음"", 0.20825881903814067], [""지읒"", 0.14238504335110738], [""기역"", 0.06469686759161378], [""디귿"", 0.05122172551216451]]",1780410500.5649345,data\logs\subject_001_20260602_183742.csv,Low-order,P4 mid-left,35.0,,4.0,4.0,4.0
1,20260602_183742,4,C5_LowA,1,learning,247,36,4,7,9,비읍,ㅂ,비읍,top1,1,1.2354816000442952,2.291196823120117,"[[""비읍"", 0.39027836294229235], [""지읒"", 0.12350262076194082], [""미음"", 0.11249212047393387], [""기역"", 0.10792845441661772], [""시옷"", 0.07153355987714917]]",1780410504.0065794,data\logs\subject_001_20260602_183742.csv,Low-order,P7 elbow-left,36.0,,4.0,4.0,4.0
1,20260602_183742,4,C5_LowA,1,learning,248,37,5,6,4,니은,ㄴ,니은,top2,1,1.9579317001625896,3.5114874839782715,"[[""미음"", 0.3398383350376984], [""니은"", 0.1537624296226635], [""비읍"", 0.10533117919766644], [""지읒"", 0.09449850282174982], [""디귿"", 0.08929164402419444]]",1780410508.4365196,data\logs\subject_001_20260602_183742.csv,Low-order,P6 mid-right,37.0,,5.0,5.0,5.0
1,20260602_183742,4,C5_LowA,1,learning,249,38,5,4,6,시옷,ㅅ,시옷,top2,1,3.580262300092727,5.308408975601196,"[[""비읍"", 0.29219484428474074], [""시옷"", 0.19585544378328115], [""지읒"", 0.13737798743946045], [""미음"", 0.1354322786709873], [""디귿"", 0.0999184108959479]]",1780410514.286325,data\logs\subject_001_20260602_183742.csv,Low-order,P4 mid-left,38.0,,5.0,5.0,5.0
1,20260602_183742,4,C5_LowA,1,learning,250,39,5,3,1,기역,ㄱ,기역,top5,1,3.908855799818412,6.343235492706299,"[[""디귿"", 0.4278984878753224], [""비읍"", 0.1581432165036096], [""니은"", 0.10370378424098292], [""이응"", 0.0633347295615115], [""기역"", 0.057520859196855754]]",1780410521.2198963,data\logs\subject_001_20260602_183742.csv,Low-order,P3 wrist-right,39.0,,5.0,5.0,5.0
1,20260602_183742,4,C5_LowA,1,learning,251,40,5,9,7,미음,ㅁ,미음,top1,1,1.2378853000700474,2.4463047981262207,"[[""미음"", 0.2876750968504062], [""니은"", 0.17044095273453047], [""지읒"", 0.12587440699535718], [""비읍"", 0.09593537532917698], [""이응"", 0.0907093017253762]]",1780410524.1560388,data\logs\subject_001_20260602_183742.csv,Low-order,P9 elbow-right,40.0,,5.0,5.0,5.0
1,20260602_183742,4,C5_LowA,1,learning,252,41,5,2,2,리을,ㄹ,리을,top2,1,1.118705999804661,2.419435739517212,"[[""미음"", 0.32681114860314486], [""리을"", 0.2506071477619589], [""니은"", 0.1473900919427772], [""이응"", 0.12743534535264328], [""비읍"", 0.043694973673334164]]",1780410527.4680068,data\logs\subject_001_20260602_183742.csv,Low-order,P2 wrist-center,41.0,,5.0,5.0,5.0
1,20260602_183742,4,C5_LowA,1,learning,253,42,5,5,5,디귿,ㄷ,디귿,top2,1,2.468356700148433,3.843113899230957,"[[""비읍"", 0.3127422993926092], [""디귿"", 0.28146603243140705], [""기역"", 0.11003611904200782], [""니은"", 0.08290287178176584], [""시옷"", 0.06297375723386132]]",1780410531.8162787,data\logs\subject_001_20260602_183742.csv,Low-order,P5 mid-center,42.0,,5.0,5.0,5.0
1,20260602_183742,4,C5_LowA,1,learning,254,43,5,8,8,지읒,ㅈ,지읒,top1,1,2.6499779000878334,3.764469146728516,"[[""지읒"", 0.41379731117000285], [""기역"", 0.11956215677798794], [""비읍"", 0.11466787212164278], [""시옷"", 0.08340785378234689], [""디귿"", 0.07491760752653692]]",1780410536.1295626,data\logs\subject_001_20260602_183742.csv,Low-order,P8 elbow-center,43.0,,5.0,5.0,5.0
1,20260602_183742,4,C5_LowA,1,learning,255,44,5,7,9,비읍,ㅂ,비읍,top1,1,1.4188717999495566,2.483659505844116,"[[""비읍"", 0.32125314088005685], [""지읒"", 0.26777709426849783], [""니은"", 0.08515003330401787], [""미음"", 0.07496037311811661], [""기역"", 0.06486267539812794]]",1780410539.1182165,data\logs\subject_001_20260602_183742.csv,Low-order,P7 elbow-left,44.0,,5.0,5.0,5.0
1,20260602_183742,4,C5_LowA,1,learning,256,45,5,1,3,이응,ㅇ,이응,manual,1,6.153666200116277,9.819348096847534,"[[""리을"", 0.1727626262510307], [""비읍"", 0.17067248503066518], [""니은"", 0.1586222841989022], [""미음"", 0.1369784636144178], [""디귿"", 0.10956746607874722]]",1780410549.438985,data\logs\subject_001_20260602_183742.csv,Low-order,P1 wrist-left,45.0,,5.0,5.0,5.0
1,20260602_183742,4,C5_LowA,1,learning,257,46,6,4,6,시옷,ㅅ,시옷,top2,1,3.009378300048411,4.584794044494629,"[[""비읍"", 0.30229487349205997], [""시옷"", 0.29385160301005836], [""지읒"", 0.09463098620916764], [""기역"", 0.08959609818117237], [""디귿"", 0.06523342381854756]]",1780410555.3579895,data\logs\subject_001_20260602_183742.csv,Low-order,P4 mid-left,46.0,,6.0,6.0,6.0
1,20260602_183742,4,C5_LowA,1,learning,258,47,6,1,3,이응,ㅇ,이응,manual,1,4.808526400011033,7.397504329681396,"[[""지읒"", 0.4339818354270116], [""비읍"", 0.1516081726291866], [""미음"", 0.08826331003211867], [""시옷"", 0.0835987420727012], [""니은"", 0.07919161351369536]]",1780410563.3299716,data\logs\subject_001_20260602_183742.csv,Low-order,P1 wrist-left,47.0,,6.0,6.0,6.0
1,20260602_183742,4,C5_LowA,1,learning,259,48,6,7,9,비읍,ㅂ,비읍,top1,1,1.477972500026226,2.548837423324585,"[[""비읍"", 0.1808376572439006], [""시옷"", 0.1696906426698587], [""지읒"", 0.16595642217299214], [""기역"", 0.12935098672889875], [""디귿"", 0.0984193440448907]]",1780410566.9235203,data\logs\subject_001_20260602_183742.csv,Low-order,P7 elbow-left,48.0,,6.0,6.0,6.0
1,20260602_183742,4,C5_LowA,1,learning,260,49,6,3,1,기역,ㄱ,기역,top1,1,1.3551183000672609,2.4074602127075195,"[[""기역"", 0.4149600809983033], [""비읍"", 0.22565707860815018], [""지읒"", 0.12153329357853124], [""시옷"", 0.07637295030117368], [""디귿"", 0.04050547135044682]]",1780410570.0103068,data\logs\subject_001_20260602_183742.csv,Low-order,P3 wrist-right,49.0,,6.0,6.0,6.0
1,20260602_183742,4,C5_LowA,1,learning,261,50,6,6,4,니은,ㄴ,리을,top4,0,1.4448824999853969,3.471203327178955,"[[""비읍"", 0.26414602019260913], [""미음"", 0.2033035494669091], [""이응"", 0.1329242563177175], [""리을"", 0.11105550856363736], [""디귿"", 0.10403691933689217]]",1780410574.1760964,data\logs\subject_001_20260602_183742.csv,Low-order,P6 mid-right,50.0,,6.0,6.0,6.0
1,20260602_183742,4,C5_LowA,1,learning,262,51,6,2,2,리을,ㄹ,리을,top1,1,1.118490400025621,2.310108423233032,"[[""리을"", 0.29366897799548247], [""미음"", 0.2250193665205174], [""니은"", 0.15470646861624815], [""이응"", 0.07169715979360584], [""디귿"", 0.07148986013007487]]",1780410577.6662629,data\logs\subject_001_20260602_183742.csv,Low-order,P2 wrist-center,51.0,,6.0,6.0,6.0
1,20260602_183742,4,C5_LowA,1,learning,263,52,6,8,8,지읒,ㅈ,지읒,top1,1,2.9461291001643986,4.503749847412109,"[[""지읒"", 0.45595032286167997], [""비읍"", 0.2426390178398044], [""기역"", 0.09978030290112881], [""디귿"", 0.08252501904722478], [""시옷"", 0.038050613679831584]]",1780410582.7047698,data\logs\subject_001_20260602_183742.csv,Low-order,P8 elbow-center,52.0,,6.0,6.0,6.0
1,20260602_183742,4,C5_LowA,1,learning,264,53,6,9,7,미음,ㅁ,미음,top1,1,1.6860875999554992,2.9993371963500977,"[[""미음"", 0.28172364837656955], [""비읍"", 0.1955119657574606], [""디귿"", 0.10150805202281123], [""니은"", 0.08073749637529563], [""시옷"", 0.07638230333186742]]",1780410586.3118882,data\logs\subject_001_20260602_183742.csv,Low-order,P9 elbow-right,53.0,,6.0,6.0,6.0
1,20260602_183742,4,C5_LowA,1,learning,265,54,6,5,5,디귿,ㄷ,디귿,top1,1,1.4780139999929816,2.93688702583313,"[[""디귿"", 0.3260387574993335], [""비읍"", 0.30454703276288203], [""지읒"", 0.10991455798923457], [""기역"", 0.05887349221909676], [""미음"", 0.05222345664869517]]",1780410590.003936,data\logs\subject_001_20260602_183742.csv,Low-order,P5 mid-center,54.0,,6.0,6.0,6.0
1,20260602_183742,4,C5_LowA,1,learning,266,55,7,7,9,비읍,ㅂ,비읍,top1,1,3.758626400027424,4.775347709655762,"[[""비읍"", 0.3791264379590681], [""지읒"", 0.2262636839570464], [""미음"", 0.10341780573986395], [""기역"", 0.09539482298761086], [""시옷"", 0.06405425069910578]]",1780410595.594433,data\logs\subject_001_20260602_183742.csv,Low-order,P7 elbow-left,55.0,,7.0,7.0,7.0
1,20260602_183742,4,C5_LowA,1,learning,267,56,7,2,2,리을,ㄹ,리을,top1,1,0.7861333999317139,1.934617519378662,"[[""리을"", 0.3286989527222144], [""니은"", 0.16954827272193898], [""미음"", 0.15902088349414786], [""디귿"", 0.14817264720533804], [""비읍"", 0.07324713965921453]]",1780410598.300625,data\logs\subject_001_20260602_183742.csv,Low-order,P2 wrist-center,56.0,,7.0,7.0,7.0
1,20260602_183742,4,C5_LowA,1,learning,268,57,7,3,1,기역,ㄱ,기역,top1,1,0.9981784000992776,2.065881967544556,"[[""기역"", 0.3809644260547192], [""비읍"", 0.3347037673865424], [""디귿"", 0.07160640148610922], [""시옷"", 0.06276032661698872], [""지읒"", 0.04383793331865845]]",1780410601.04046,data\logs\subject_001_20260602_183742.csv,Low-order,P3 wrist-right,57.0,,7.0,7.0,7.0
1,20260602_183742,4,C5_LowA,1,learning,269,58,7,9,7,미음,ㅁ,미음,manual,1,1.9579100001137704,4.679367542266846,"[[""비읍"", 0.2330689629548205], [""지읒"", 0.16759865703410576], [""시옷"", 0.13957156349804276], [""디귿"", 0.13257392173255986], [""니은"", 0.1011470036084477]]",1780410606.3108006,data\logs\subject_001_20260602_183742.csv,Low-order,P9 elbow-right,58.0,,7.0,7.0,7.0
1,20260602_183742,4,C5_LowA,1,learning,270,59,7,8,8,지읒,ㅈ,지읒,top1,1,0.938651599921286,1.9580254554748533,"[[""지읒"", 0.7038060768618646], [""비읍"", 0.09956847369178916], [""기역"", 0.05482586864205608], [""이응"", 0.030080725967296246], [""시옷"", 0.02960549363397073]]",1780410609.422769,data\logs\subject_001_20260602_183742.csv,Low-order,P8 elbow-center,59.0,,7.0,7.0,7.0
1,20260602_183742,4,C5_LowA,1,learning,271,60,7,1,3,이응,ㅇ,이응,manual,1,1.779845500132069,4.646751403808594,"[[""미음"", 0.31968446205330364], [""비읍"", 0.16174205491394855], [""지읒"", 0.1469977632802557], [""기역"", 0.11654733152835153], [""니은"", 0.08365520341830993]]",1780410614.661633,data\logs\subject_001_20260602_183742.csv,Low-order,P1 wrist-left,60.0,,7.0,7.0,7.0
1,20260602_183742,4,C5_LowA,1,learning,272,61,7,6,4,니은,ㄴ,니은,top2,1,1.0619451000820843,2.4619152545928955,"[[""미음"", 0.296141599861184], [""니은"", 0.20584936189944525], [""비읍"", 0.1781152347843392], [""이응"", 0.06995604261788037], [""디귿"", 0.06963701747661648]]",1780410618.1187818,data\logs\subject_001_20260602_183742.csv,Low-order,P6 mid-right,61.0,,7.0,7.0,7.0
