subject,day,session_idx,session_name,session_title,trial_index_global,trial_index_session,target_label,target_command,response_mode,option_count,options,selected_label,manual_response,correct,rt_sec,rt_from_stimulus_sec,voice_onset_rt_sec,trial_elapsed_sec,session_elapsed_sec,day_elapsed_sec,trial_start_time,stimulus_sent_time,answer_time,voice_engine,voice_wav_path,voice_stt_raw,voice_stt_norm,voice_process_time_sec,voice_recorded_duration_sec,top_candidates,timestamp,stimulus_duration_sec,within_unit_interval_ms,cv_interval_ms
s01,2026-05-28,1,basic_consonants,Session 1: Basic consonants,1,1,ㅅ,4/150,voice_ml,7,ㄱ|ㄴ|ㄷ|ㅂ|ㅅ|ㅇ|ㅈ,ㅅ,0,1,1.3837559999665245,1.2337559999665246,,5.10258936882019,,,1779972703.059826,1779972705.28012,1779972708.1624153,ml_jamo,hangul_learning_results\subject_s01\voice_trials\trial_voice_1779972707352.wav,,,0.23141820007003844,1.26,"[{""label"": ""ㅅ"", ""probability"": 0.1596153846153846, ""score"": 0.1596153846153846}, {""label"": ""ㄱ"", ""probability"": 0.15384615384615385, ""score"": 0.15384615384615385}, {""label"": ""ㅈ"", ""probability"": 0.07692307692307693, ""score"": 0.07692307692307693}, {""label"": ""ㅇ"", ""probability"": 0.05961538461538462, ""score"": 0.05961538461538462}, {""label"": ""ㄷ"", ""probability"": 0.05, ""score"": 0.05}]",2026-05-28 21:51:48,0.15,150,250
s01,2026-05-28,1,basic_consonants,Session 1: Basic consonants,2,2,ㅇ,9/150,voice_ml,7,ㄱ|ㄴ|ㄷ|ㅂ|ㅅ|ㅇ|ㅈ,ㅇ,0,1,0.7531392000382766,0.6031392000382766,,3.051156759262085,,,1779972708.5792966,1779972709.273302,1779972711.6304533,ml_jamo,hangul_learning_results\subject_s01\voice_trials\trial_voice_1779972710883.wav,,,0.2300917999818921,1.44,"[{""label"": ""ㅇ"", ""probability"": 0.3173076923076923, ""score"": 0.3173076923076923}, {""label"": ""ㄴ"", ""probability"": 0.12115384615384615, ""score"": 0.12115384615384615}, {""label"": ""ㅂ"", ""probability"": 0.07500000000000001, ""score"": 0.07500000000000001}, {""label"": ""ㄷ"", ""probability"": 0.07307692307692308, ""score"": 0.07307692307692308}, {""label"": ""ㄱ"", ""probability"": 0.05, ""score"": 0.05}]",2026-05-28 21:51:51,0.15,150,250
s01,2026-05-28,1,basic_consonants,Session 1: Basic consonants,3,3,ㄱ,3/150,voice_ml,7,ㄱ|ㄴ|ㄷ|ㅂ|ㅅ|ㅇ|ㅈ,ㄱ,0,1,0.7237412000540644,0.5737412000540644,,2.6785004138946533,,,1779972712.2047534,1779972712.8387077,1779972714.8832538,ml_jamo,hangul_learning_results\subject_s01\voice_trials\trial_voice_1779972714239.wav,,,0.22600589995272458,1.26,"[{""label"": ""ㄱ"", ""probability"": 0.19615384615384618, ""score"": 0.19615384615384618}, {""label"": ""ㄷ"", ""probability"": 0.12115384615384615, ""score"": 0.12115384615384615}, {""label"": ""ㅂ"", ""probability"": 0.08653846153846154, ""score"": 0.08653846153846154}, {""label"": ""ㄴ"", ""probability"": 0.05576923076923077, ""score"": 0.05576923076923077}, {""label"": ""ㅇ"", ""probability"": 0.05576923076923077, ""score"": 0.05576923076923077}]",2026-05-28 21:51:54,0.15,150,250
s01,2026-05-28,1,basic_consonants,Session 1: Basic consonants,4,4,ㄷ,1/150,voice_ml,7,ㄱ|ㄴ|ㄷ|ㅂ|ㅅ|ㅇ|ㅈ,ㄷ,0,1,0.8142292000120506,0.6642292000120505,,2.720827579498291,,,1779972715.2970448,1779972715.938309,1779972718.0178723,ml_jamo,hangul_learning_results\subject_s01\voice_trials\trial_voice_1779972717337.wav,,,0.22748100000899285,1.17,"[{""label"": ""ㄷ"", ""probability"": 0.1423076923076923, ""score"": 0.1423076923076923}, {""label"": ""ㄴ"", ""probability"": 0.1326923076923077, ""score"": 0.1326923076923077}, {""label"": ""ㅇ"", ""probability"": 0.12115384615384615, ""score"": 0.12115384615384615}, {""label"": ""ㅂ"", ""probability"": 0.0826923076923077, ""score"": 0.0826923076923077}, {""label"": ""ㄱ"", ""probability"": 0.06538461538461539, ""score"": 0.06538461538461539}]",2026-05-28 21:51:58,0.15,150,250
s01,2026-05-28,1,basic_consonants,Session 1: Basic consonants,5,5,ㅂ,6/150,voice_ml,7,ㄱ|ㄴ|ㄷ|ㅂ|ㅅ|ㅇ|ㅈ,ㅂ,0,1,1.0614955999189988,0.9114955999189988,,3.3923003673553467,,,1779972718.4569898,1779972719.0987606,1779972721.8492901,ml_jamo,hangul_learning_results\subject_s01\voice_trials\trial_voice_1779972720836.wav,,,0.22812290000729263,1.26,"[{""label"": ""ㅇ"", ""probability"": 0.18076923076923077, ""score"": 0.18076923076923077}, {""label"": ""ㅂ"", ""probability"": 0.17884615384615385, ""score"": 0.17884615384615385}, {""label"": ""ㄴ"", ""probability"": 0.15000000000000002, ""score"": 0.15000000000000002}, {""label"": ""ㄷ"", ""probability"": 0.10192307692307692, ""score"": 0.10192307692307692}, {""label"": ""ㅈ"", ""probability"": 0.028846153846153848, ""score"": 0.028846153846153848}]",2026-05-28 21:52:01,0.15,150,250
s01,2026-05-28,1,basic_consonants,Session 1: Basic consonants,6,6,ㄴ,2/150,voice_ml,7,ㄱ|ㄴ|ㄷ|ㅂ|ㅅ|ㅇ|ㅈ,ㄴ,0,1,0.7229065001010895,0.5729065001010895,,2.948662281036377,,,1779972722.2942667,1779972722.9408376,1779972725.242929,ml_jamo,hangul_learning_results\subject_s01\voice_trials\trial_voice_1779972724460.wav,,,0.23198039992712438,1.38,"[{""label"": ""ㅇ"", ""probability"": 0.2519230769230769, ""score"": 0.2519230769230769}, {""label"": ""ㄴ"", ""probability"": 0.14038461538461539, ""score"": 0.14038461538461539}, {""label"": ""ㄷ"", ""probability"": 0.08653846153846154, ""score"": 0.08653846153846154}, {""label"": ""ㅂ"", ""probability"": 0.06923076923076923, ""score"": 0.06923076923076923}, {""label"": ""ㅅ"", ""probability"": 0.032692307692307694, ""score"": 0.032692307692307694}]",2026-05-28 21:52:05,0.15,150,250
s01,2026-05-28,1,basic_consonants,Session 1: Basic consonants,7,7,ㅈ,7/150,voice_ml,7,ㄱ|ㄴ|ㄷ|ㅂ|ㅅ|ㅇ|ㅈ,ㅈ,0,1,0.8147300999844447,0.6647300999844447,,2.960007429122925,,,1779972725.6312745,1779972726.266648,1779972728.591282,ml_jamo,hangul_learning_results\subject_s01\voice_trials\trial_voice_1779972727787.wav,,,0.22636380000039935,1.29,"[{""label"": ""ㅈ"", ""probability"": 0.18846153846153846, ""score"": 0.18846153846153846}, {""label"": ""ㅂ"", ""probability"": 0.06730769230769232, ""score"": 0.06730769230769232}, {""label"": ""ㄱ"", ""probability"": 0.046153846153846156, ""score"": 0.046153846153846156}, {""label"": ""ㄷ"", ""probability"": 0.028846153846153848, ""score"": 0.028846153846153848}, {""label"": ""ㅇ"", ""probability"": 0.026923076923076925, ""score"": 0.026923076923076925}]",2026-05-28 21:52:08,0.15,150,250
s01,2026-05-28,1,basic_consonants,Session 1: Basic consonants,8,8,ㄴ,2/150,voice_ml,7,ㄱ|ㄴ|ㄷ|ㅂ|ㅅ|ㅇ|ㅈ,ㄴ,0,1,0.842489599948749,0.6924895999487489,,3.067979097366333,,,1779972728.9903238,1779972729.6368778,1779972732.0583029,ml_jamo,hangul_learning_results\subject_s01\voice_trials\trial_voice_1779972731306.wav,,,0.22876800002995878,1.41,"[{""label"": ""ㄴ"", ""probability"": 0.19615384615384618, ""score"": 0.19615384615384618}, {""label"": ""ㅇ"", ""probability"": 0.16923076923076924, ""score"": 0.16923076923076924}, {""label"": ""ㄷ"", ""probability"": 0.12115384615384615, ""score"": 0.12115384615384615}, {""label"": ""ㅂ"", ""probability"": 0.08653846153846154, ""score"": 0.08653846153846154}, {""label"": ""ㄱ"", ""probability"": 0.032692307692307694, ""score"": 0.032692307692307694}]",2026-05-28 21:52:12,0.15,150,250
s01,2026-05-28,1,basic_consonants,Session 1: Basic consonants,9,9,ㅈ,7/150,voice_ml,7,ㄱ|ㄴ|ㄷ|ㅂ|ㅅ|ㅇ|ㅈ,ㅈ,0,1,0.7415433999849483,0.5915433999849483,,2.8944737911224365,,,1779972732.4252598,1779972733.0632172,1779972735.3197336,ml_jamo,hangul_learning_results\subject_s01\voice_trials\trial_voice_1779972734512.wav,,,0.2540754999499768,1.29,"[{""label"": ""ㅈ"", ""probability"": 0.25769230769230766, ""score"": 0.25769230769230766}, {""label"": ""ㅅ"", ""probability"": 0.09807692307692309, ""score"": 0.09807692307692309}, {""label"": ""ㄱ"", ""probability"": 0.07692307692307693, ""score"": 0.07692307692307693}, {""label"": ""ㅇ"", ""probability"": 0.023076923076923078, ""score"": 0.023076923076923078}, {""label"": ""ㄷ"", ""probability"": 0.021153846153846155, ""score"": 0.021153846153846155}]",2026-05-28 21:52:15,0.15,150,250
s01,2026-05-28,1,basic_consonants,Session 1: Basic consonants,10,10,ㄷ,1/150,voice_ml,7,ㄱ|ㄴ|ㄷ|ㅂ|ㅅ|ㅇ|ㅈ,ㄷ,0,1,0.8141400000313297,0.6641400000313297,,2.8190927505493164,,,1779972735.695206,1779972736.3379936,1779972738.5142987,ml_jamo,hangul_learning_results\subject_s01\voice_trials\trial_voice_1779972737797.wav,,,0.22352120000869036,1.23,"[{""label"": ""ㄷ"", ""probability"": 0.15576923076923077, ""score"": 0.15576923076923077}, {""label"": ""ㅇ"", ""probability"": 0.14807692307692308, ""score"": 0.14807692307692308}, {""label"": ""ㅂ"", ""probability"": 0.11153846153846154, ""score"": 0.11153846153846154}, {""label"": ""ㄴ"", ""probability"": 0.10192307692307692, ""score"": 0.10192307692307692}, {""label"": ""ㅈ"", ""probability"": 0.03461538461538462, ""score"": 0.03461538461538462}]",2026-05-28 21:52:18,0.15,150,250
s01,2026-05-28,1,basic_consonants,Session 1: Basic consonants,11,11,ㄱ,3/150,voice_ml,7,ㄱ|ㄴ|ㄷ|ㅂ|ㅅ|ㅇ|ㅈ,ㄱ,0,1,0.724030299927108,0.574030299927108,,2.726161003112793,,,1779972738.8792226,1779972739.5295818,1779972741.6053836,ml_jamo,hangul_learning_results\subject_s01\voice_trials\trial_voice_1779972740898.wav,,,0.22359279997181147,1.23,"[{""label"": ""ㄱ"", ""probability"": 0.15576923076923077, ""score"": 0.15576923076923077}, {""label"": ""ㄷ"", ""probability"": 0.11730769230769231, ""score"": 0.11730769230769231}, {""label"": ""ㄴ"", ""probability"": 0.1, ""score"": 0.1}, {""label"": ""ㅇ"", ""probability"": 0.08653846153846154, ""score"": 0.08653846153846154}, {""label"": ""ㅈ"", ""probability"": 0.05, ""score"": 0.05}]",2026-05-28 21:52:21,0.15,150,250
s01,2026-05-28,1,basic_consonants,Session 1: Basic consonants,12,12,ㅇ,9/150,voice_ml,7,ㄱ|ㄴ|ㄷ|ㅂ|ㅅ|ㅇ|ㅈ,ㅇ,0,1,0.9039020000491291,0.7539020000491291,,3.0219244956970215,,,1779972742.070284,1779972742.7203646,1779972745.0922084,ml_jamo,hangul_learning_results\subject_s01\voice_trials\trial_voice_1779972744451.wav,,,0.22219270002096891,1.41,"[{""label"": ""ㅇ"", ""probability"": 0.48653846153846153, ""score"": 0.48653846153846153}, {""label"": ""ㄴ"", ""probability"": 0.10192307692307692, ""score"": 0.10192307692307692}, {""label"": ""ㅂ"", ""probability"": 0.07115384615384615, ""score"": 0.07115384615384615}, {""label"": ""ㄱ"", ""probability"": 0.023076923076923078, ""score"": 0.023076923076923078}, {""label"": ""ㄷ"", ""probability"": 0.023076923076923078, ""score"": 0.023076923076923078}]",2026-05-28 21:52:25,0.15,150,250
s01,2026-05-28,1,basic_consonants,Session 1: Basic consonants,13,13,ㅅ,4/150,voice_ml,7,ㄱ|ㄴ|ㄷ|ㅂ|ㅅ|ㅇ|ㅈ,ㅅ,0,1,1.3837942000245675,1.2337942000245676,,3.4638900756835938,,,1779972745.4712472,1779972746.1107073,1779972748.9351373,ml_jamo,hangul_learning_results\subject_s01\voice_trials\trial_voice_1779972748171.wav,,,0.22449660010170192,1.26,"[{""label"": ""ㅅ"", ""probability"": 0.29038461538461535, ""score"": 0.29038461538461535}, {""label"": ""ㅈ"", ""probability"": 0.10384615384615385, ""score"": 0.10384615384615385}, {""label"": ""ㄱ"", ""probability"": 0.08461538461538462, ""score"": 0.08461538461538462}, {""label"": ""ㄷ"", ""probability"": 0.03653846153846154, ""score"": 0.03653846153846154}, {""label"": ""ㄴ"", ""probability"": 0.01730769230769231, ""score"": 0.01730769230769231}]",2026-05-28 21:52:28,0.15,150,250
s01,2026-05-28,1,basic_consonants,Session 1: Basic consonants,14,14,ㅂ,6/150,voice_ml,7,ㄱ|ㄴ|ㄷ|ㅂ|ㅅ|ㅇ|ㅈ,ㅂ,0,1,0.8740997000131756,0.7240997000131756,,3.4219837188720703,,,1779972749.3413012,1779972749.9722996,1779972752.763285,ml_jamo,hangul_learning_results\subject_s01\voice_trials\trial_voice_1779972751523.wav,,,0.22706840001046658,1.26,"[{""label"": ""ㅇ"", ""probability"": 0.24423076923076925, ""score"": 0.24423076923076925}, {""label"": ""ㄴ"", ""probability"": 0.22115384615384615, ""score"": 0.22115384615384615}, {""label"": ""ㅂ"", ""probability"": 0.07500000000000001, ""score"": 0.07500000000000001}, {""label"": ""ㄷ"", ""probability"": 0.06346153846153846, ""score"": 0.06346153846153846}, {""label"": ""ㅅ"", ""probability"": 0.021153846153846155, ""score"": 0.021153846153846155}]",2026-05-28 21:52:32,0.15,150,250
s01,2026-05-28,2,long_consonants,Session 2: Long consonants,15,1,ㅊ,7/350,voice_ml,7,ㅋ|ㄹ|ㅌ|ㅍ|ㅎ|ㅁ|ㅊ,ㅊ,0,1,2.1026975999120623,1.7526975999120622,,5.709300994873047,,,1779972754.5996814,1779972756.4559183,1779972760.3089824,ml_jamo,hangul_learning_results\subject_s01\voice_trials\trial_voice_1779972759355.wav,,,0.2177448000293225,1.38,"[{""label"": ""ㅊ"", ""probability"": 0.4173076923076923, ""score"": 0.4173076923076923}, {""label"": ""ㅋ"", ""probability"": 0.07307692307692308, ""score"": 0.07307692307692308}, {""label"": ""ㅌ"", ""probability"": 0.05961538461538462, ""score"": 0.05961538461538462}, {""label"": ""ㅍ"", ""probability"": 0.05, ""score"": 0.05}, {""label"": ""ㅎ"", ""probability"": 0.03653846153846154, ""score"": 0.03653846153846154}]",2026-05-28 21:52:40,0.35,150,250
s01,2026-05-28,2,long_consonants,Session 2: Long consonants,16,2,ㅋ,3/350,voice_ml,7,ㅋ|ㄹ|ㅌ|ㅍ|ㅎ|ㅁ|ㅊ,ㅋ,0,1,1.5923616000218317,1.2423616000218316,,4.36797022819519,,,1779972761.6123497,1779972762.2570152,1779972765.98032,ml_jamo,hangul_learning_results\subject_s01\voice_trials\trial_voice_1779972764586.wav,,,0.22325000003911555,1.32,"[{""label"": ""ㅌ"", ""probability"": 0.1980769230769231, ""score"": 0.1980769230769231}, {""label"": ""ㅍ"", ""probability"": 0.10192307692307692, ""score"": 0.10192307692307692}, {""label"": ""ㅋ"", ""probability"": 0.0826923076923077, ""score"": 0.0826923076923077}, {""label"": ""ㅊ"", ""probability"": 0.06923076923076923, ""score"": 0.06923076923076923}, {""label"": ""ㅎ"", ""probability"": 0.04423076923076923, ""score"": 0.04423076923076923}]",2026-05-28 21:52:45,0.35,150,250
s01,2026-05-28,2,long_consonants,Session 2: Long consonants,17,3,ㅁ,9/350,voice_ml,7,ㅋ|ㄹ|ㅌ|ㅍ|ㅎ|ㅁ|ㅊ,ㅁ,0,1,1.4723114999942482,1.122311499994248,,3.909734010696411,,,1779972766.5837426,1779972767.2329805,1779972770.4934766,ml_jamo,hangul_learning_results\subject_s01\voice_trials\trial_voice_1779972769621.wav,,,0.2198243000311777,1.5,"[{""label"": ""ㅁ"", ""probability"": 0.25576923076923075, ""score"": 0.25576923076923075}, {""label"": ""ㄹ"", ""probability"": 0.0826923076923077, ""score"": 0.0826923076923077}, {""label"": ""ㅌ"", ""probability"": 0.03076923076923077, ""score"": 0.03076923076923077}, {""label"": ""ㅎ"", ""probability"": 0.03076923076923077, ""score"": 0.03076923076923077}, {""label"": ""ㅍ"", ""probability"": 0.019230769230769232, ""score"": 0.019230769230769232}]",2026-05-28 21:52:50,0.35,150,250
s01,2026-05-28,2,long_consonants,Session 2: Long consonants,18,4,ㄹ,2/350,voice_ml,7,ㅋ|ㄹ|ㅌ|ㅍ|ㅎ|ㅁ|ㅊ,ㄹ,0,1,1.3525083999847993,1.0025083999847992,,3.626081705093384,,,1779972771.413486,1779972772.0859172,1779972775.0395677,ml_jamo,hangul_learning_results\subject_s01\voice_trials\trial_voice_1779972774326.wav,,,0.22703730000648648,1.47,"[{""label"": ""ㄹ"", ""probability"": 0.12884615384615383, ""score"": 0.12884615384615383}, {""label"": ""ㅁ"", ""probability"": 0.11538461538461539, ""score"": 0.11538461538461539}, {""label"": ""ㅌ"", ""probability"": 0.06923076923076923, ""score"": 0.06923076923076923}, {""label"": ""ㅍ"", ""probability"": 0.04230769230769231, ""score"": 0.04230769230769231}, {""label"": ""ㅎ"", ""probability"": 0.03461538461538462, ""score"": 0.03461538461538462}]",2026-05-28 21:52:55,0.35,150,250
s01,2026-05-28,2,long_consonants,Session 2: Long consonants,19,5,ㅌ,1/350,voice_ml,7,ㅋ|ㄹ|ㅌ|ㅍ|ㅎ|ㅁ|ㅊ,ㅌ,0,1,1.62497650005389,1.27497650005389,,4.023743152618408,,,1779972775.5401683,1779972776.1979876,1779972779.5639114,ml_jamo,hangul_learning_results\subject_s01\voice_trials\trial_voice_1779972778559.wav,,,0.2155124000273645,1.32,"[{""label"": ""ㅌ"", ""probability"": 0.2576923076923077, ""score"": 0.2576923076923077}, {""label"": ""ㅍ"", ""probability"": 0.1576923076923077, ""score"": 0.1576923076923077}, {""label"": ""ㅎ"", ""probability"": 0.05384615384615385, ""score"": 0.05384615384615385}, {""label"": ""ㅊ"", ""probability"": 0.04807692307692308, ""score"": 0.04807692307692308}, {""label"": ""ㅋ"", ""probability"": 0.032692307692307694, ""score"": 0.032692307692307694}]",2026-05-28 21:52:59,0.35,150,250
s01,2026-05-28,2,long_consonants,Session 2: Long consonants,20,6,ㅎ,4/350,voice_ml,7,ㅋ|ㄹ|ㅌ|ㅍ|ㅎ|ㅁ|ㅊ,ㅎ,0,1,2.0148633000208065,1.6648633000208064,,4.110496759414673,,,1779972780.5822809,1779972781.2215762,1779972784.6927776,ml_jamo,hangul_learning_results\subject_s01\voice_trials\trial_voice_1779972783971.wav,,,0.254802200011909,1.32,"[{""label"": ""ㅎ"", ""probability"": 0.36730769230769234, ""score"": 0.36730769230769234}, {""label"": ""ㅌ"", ""probability"": 0.05576923076923077, ""score"": 0.05576923076923077}, {""label"": ""ㅋ"", ""probability"": 0.051923076923076926, ""score"": 0.051923076923076926}, {""label"": ""ㄹ"", ""probability"": 0.038461538461538464, ""score"": 0.038461538461538464}, {""label"": ""ㅊ"", ""probability"": 0.038461538461538464, ""score"": 0.038461538461538464}]",2026-05-28 21:53:04,0.35,150,250
s01,2026-05-28,2,long_consonants,Session 2: Long consonants,21,7,ㅍ,6/350,voice_ml,7,ㅋ|ㄹ|ㅌ|ㅍ|ㅎ|ㅁ|ㅊ,ㅍ,0,1,2.2543065000791103,1.9043065000791102,,4.368032455444336,,,1779972785.7961771,1779972786.4428053,1779972790.1642096,ml_jamo,hangul_learning_results\subject_s01\voice_trials\trial_voice_1779972789432.wav,,,0.22335159999784082,1.32,"[{""label"": ""ㅍ"", ""probability"": 0.1326923076923077, ""score"": 0.1326923076923077}, {""label"": ""ㅎ"", ""probability"": 0.1326923076923077, ""score"": 0.1326923076923077}, {""label"": ""ㅌ"", ""probability"": 0.10384615384615385, ""score"": 0.10384615384615385}, {""label"": ""ㅋ"", ""probability"": 0.07500000000000001, ""score"": 0.07500000000000001}, {""label"": ""ㅊ"", ""probability"": 0.06923076923076923, ""score"": 0.06923076923076923}]",2026-05-28 21:53:10,0.35,150,250
s01,2026-05-28,2,long_consonants,Session 2: Long consonants,22,8,ㅍ,6/350,voice_ml,7,ㅋ|ㄹ|ㅌ|ㅍ|ㅎ|ㅁ|ㅊ,ㅍ,0,1,1.3533851000247523,1.0033851000247522,,3.70375394821167,,,1779972790.5482018,1779972791.1869981,1779972794.2519557,ml_jamo,hangul_learning_results\subject_s01\voice_trials\trial_voice_1779972793277.wav,,,0.2212936000432819,1.32,"[{""label"": ""ㅌ"", ""probability"": 0.20192307692307693, ""score"": 0.20192307692307693}, {""label"": ""ㅍ"", ""probability"": 0.19615384615384618, ""score"": 0.19615384615384618}, {""label"": ""ㅎ"", ""probability"": 0.10192307692307692, ""score"": 0.10192307692307692}, {""label"": ""ㅋ"", ""probability"": 0.05384615384615385, ""score"": 0.05384615384615385}, {""label"": ""ㅊ"", ""probability"": 0.028846153846153848, ""score"": 0.028846153846153848}]",2026-05-28 21:53:14,0.35,150,250
s01,2026-05-28,2,long_consonants,Session 2: Long consonants,23,9,ㅊ,7/350,voice_ml,7,ㅋ|ㄹ|ㅌ|ㅍ|ㅎ|ㅁ|ㅊ,ㅊ,0,1,1.4157650000415742,1.0657650000415742,,3.5953173637390137,,,1779972794.8721683,1779972795.5266201,1779972798.4674857,ml_jamo,hangul_learning_results\subject_s01\voice_trials\trial_voice_1779972797768.wav,,,0.21975899999961257,1.41,"[{""label"": ""ㅊ"", ""probability"": 0.3403846153846154, ""score"": 0.3403846153846154}, {""label"": ""ㅋ"", ""probability"": 0.08076923076923077, ""score"": 0.08076923076923077}, {""label"": ""ㅍ"", ""probability"": 0.06346153846153846, ""score"": 0.06346153846153846}, {""label"": ""ㅌ"", ""probability"": 0.051923076923076926, ""score"": 0.051923076923076926}, {""label"": ""ㅎ"", ""probability"": 0.03076923076923077, ""score"": 0.03076923076923077}]",2026-05-28 21:53:18,0.35,150,250
s01,2026-05-28,2,long_consonants,Session 2: Long consonants,24,10,ㅁ,9/350,voice_ml,7,ㅋ|ㄹ|ㅌ|ㅍ|ㅎ|ㅁ|ㅊ,ㅁ,0,1,1.1736037000082433,0.8236037000082433,,3.3594841957092285,,,1779972798.9416916,1779972799.5564435,1779972802.3011758,ml_jamo,hangul_learning_results\subject_s01\voice_trials\trial_voice_1779972801645.wav,,,0.22297819994855672,1.5,"[{""label"": ""ㅁ"", ""probability"": 0.19423076923076923, ""score"": 0.19423076923076923}, {""label"": ""ㄹ"", ""probability"": 0.14038461538461539, ""score"": 0.14038461538461539}, {""label"": ""ㅎ"", ""probability"": 0.021153846153846155, ""score"": 0.021153846153846155}, {""label"": ""ㅌ"", ""probability"": 0.015384615384615385, ""score"": 0.015384615384615385}, {""label"": ""ㅍ"", ""probability"": 0.015384615384615385, ""score"": 0.015384615384615385}]",2026-05-28 21:53:22,0.35,150,250
s01,2026-05-28,2,long_consonants,Session 2: Long consonants,25,11,ㅎ,4/350,voice_ml,7,ㅋ|ㄹ|ㅌ|ㅍ|ㅎ|ㅁ|ㅊ,ㅎ,0,1,2.4627575998893008,2.1127575998893007,,4.527917146682739,,,1779972802.7191868,1779972803.3648758,1779972807.247104,ml_jamo,hangul_learning_results\subject_s01\voice_trials\trial_voice_1779972806576.wav,,,0.21866090002004057,1.32,"[{""label"": ""ㅎ"", ""probability"": 0.28076923076923077, ""score"": 0.28076923076923077}, {""label"": ""ㅌ"", ""probability"": 0.11153846153846153, ""score"": 0.11153846153846153}, {""label"": ""ㅍ"", ""probability"": 0.07500000000000001, ""score"": 0.07500000000000001}, {""label"": ""ㅋ"", ""probability"": 0.051923076923076926, ""score"": 0.051923076923076926}, {""label"": ""ㄹ"", ""probability"": 0.03461538461538462, ""score"": 0.03461538461538462}]",2026-05-28 21:53:27,0.35,150,250
s01,2026-05-28,2,long_consonants,Session 2: Long consonants,26,12,ㅌ,1/350,voice_ml,7,ㅋ|ㄹ|ㅌ|ㅍ|ㅎ|ㅁ|ㅊ,ㅌ,0,1,1.204655300010927,0.854655300010927,,3.4029669761657715,,,1779972807.6201801,1779972808.2508552,1779972811.023147,ml_jamo,hangul_learning_results\subject_s01\voice_trials\trial_voice_1779972810192.wav,,,0.21931600000243634,1.32,"[{""label"": ""ㅌ"", ""probability"": 0.17307692307692307, ""score"": 0.17307692307692307}, {""label"": ""ㅍ"", ""probability"": 0.11923076923076924, ""score"": 0.11923076923076924}, {""label"": ""ㅋ"", ""probability"": 0.11153846153846154, ""score"": 0.11153846153846154}, {""label"": ""ㅊ"", ""probability"": 0.1076923076923077, ""score"": 0.1076923076923077}, {""label"": ""ㅎ"", ""probability"": 0.1, ""score"": 0.1}]",2026-05-28 21:53:31,0.35,150,250
s01,2026-05-28,2,long_consonants,Session 2: Long consonants,27,13,ㄹ,2/350,voice_ml,7,ㅋ|ㄹ|ㅌ|ㅍ|ㅎ|ㅁ|ㅊ,ㄹ,0,1,0.9937551999464631,0.6437551999464631,,3.4757611751556396,,,1779972811.5664291,1779972812.2216346,1779972815.0421903,ml_jamo,hangul_learning_results\subject_s01\voice_trials\trial_voice_1779972814162.wav,,,0.22844019997864962,1.53,"[{""label"": ""ㅁ"", ""probability"": 0.1596153846153846, ""score"": 0.1596153846153846}, {""label"": ""ㄹ"", ""probability"": 0.11923076923076922, ""score"": 0.11923076923076922}, {""label"": ""ㅎ"", ""probability"": 0.05576923076923077, ""score"": 0.05576923076923077}, {""label"": ""ㅌ"", ""probability"": 0.05, ""score"": 0.05}, {""label"": ""ㅍ"", ""probability"": 0.021153846153846155, ""score"": 0.021153846153846155}]",2026-05-28 21:53:35,0.35,150,250
s01,2026-05-28,2,long_consonants,Session 2: Long consonants,28,14,ㅋ,3/350,voice_ml,7,ㅋ|ㄹ|ㅌ|ㅍ|ㅎ|ㅁ|ㅊ,ㅋ,0,1,1.1445029000751674,0.7945029000751674,,3.688972234725952,,,1779972815.6371908,1779972816.2723026,1779972819.326163,ml_jamo,hangul_learning_results\subject_s01\voice_trials\trial_voice_1779972818122.wav,,,0.2211218000156805,1.29,"[{""label"": ""ㅊ"", ""probability"": 0.17884615384615385, ""score"": 0.17884615384615385}, {""label"": ""ㅍ"", ""probability"": 0.14038461538461539, ""score"": 0.14038461538461539}, {""label"": ""ㅋ"", ""probability"": 0.12115384615384617, ""score"": 0.12115384615384617}, {""label"": ""ㅌ"", ""probability"": 0.10961538461538461, ""score"": 0.10961538461538461}, {""label"": ""ㅎ"", ""probability"": 0.046153846153846156, ""score"": 0.046153846153846156}]",2026-05-28 21:53:39,0.35,150,250
s01,2026-05-28,3,double_consonants,Session 3: Double consonants,29,1,ㅆ,4/150.0/150.4/150,voice_ml,5,ㄲ|ㄸ|ㅃ|ㅆ|ㅉ,ㅆ,1,1,1.7130038000177592,1.2626038000177593,,8.301941633224487,,,1779972821.0496273,1779972822.3652647,1779972829.351569,ml_jamo,hangul_learning_results\subject_s01\voice_trials\trial_voice_1779972825055.wav,,,0.25155089993495494,1.56,"[{""label"": ""ㄱ"", ""probability"": 0.18461538461538463, ""score"": 0.18461538461538463}, {""label"": ""ㅎ"", ""probability"": 0.14038461538461539, ""score"": 0.14038461538461539}, {""label"": ""ㅈ"", ""probability"": 0.10961538461538461, ""score"": 0.10961538461538461}, {""label"": ""ㅅ"", ""probability"": 0.10576923076923078, ""score"": 0.10576923076923078}, {""label"": ""ㅋ"", ""probability"": 0.10576923076923078, ""score"": 0.10576923076923078}]",2026-05-28 21:53:49,0.45039999999999997,150,250
s01,2026-05-28,3,double_consonants,Session 3: Double consonants,30,2,ㄸ,1/150.0/150.1/150,voice_ml,5,ㄲ|ㄸ|ㅃ|ㅆ|ㅉ,ㄸ,1,1,1.1432923000538722,0.6931923000538722,,7.680800199508667,,,1779972830.6083326,1779972831.9333224,1779972838.2891328,ml_jamo,hangul_learning_results\subject_s01\voice_trials\trial_voice_1779972834022.wav,,,0.22134349995758384,1.53,"[{""label"": ""ㅎ"", ""probability"": 0.21346153846153848, ""score"": 0.21346153846153848}, {""label"": ""ㄷ"", ""probability"": 0.13076923076923078, ""score"": 0.13076923076923078}, {""label"": ""ㅈ"", ""probability"": 0.09807692307692309, ""score"": 0.09807692307692309}, {""label"": ""ㅌ"", ""probability"": 0.0903846153846154, ""score"": 0.0903846153846154}, {""label"": ""ㄱ"", ""probability"": 0.08653846153846154, ""score"": 0.08653846153846154}]",2026-05-28 21:53:58,0.4501,150,250
s01,2026-05-28,3,double_consonants,Session 3: Double consonants,31,3,ㅉ,7/150.0/150.7/150,voice_ml,5,ㄲ|ㄸ|ㅃ|ㅆ|ㅉ,ㅉ,1,1,1.9537250000284985,1.5030250000284986,,6.926733016967773,,,1779972838.9991117,1779972839.8395448,1779972845.9258447,ml_jamo,hangul_learning_results\subject_s01\voice_trials\trial_voice_1779972842798.wav,,,0.25607460003811866,1.59,"[{""label"": ""ㅈ"", ""probability"": 0.16923076923076924, ""score"": 0.16923076923076924}, {""label"": ""ㅎ"", ""probability"": 0.16923076923076924, ""score"": 0.16923076923076924}, {""label"": ""ㄱ"", ""probability"": 0.10384615384615385, ""score"": 0.10384615384615385}, {""label"": ""ㄷ"", ""probability"": 0.09615384615384616, ""score"": 0.09615384615384616}, {""label"": ""ㅇ"", ""probability"": 0.07307692307692308, ""score"": 0.07307692307692308}]",2026-05-28 21:54:05,0.4507,150,250
s01,2026-05-28,3,double_consonants,Session 3: Double consonants,32,4,ㄲ,3/150.0/150.3/150,voice_ml,5,ㄲ|ㄸ|ㅃ|ㅆ|ㅉ,ㄲ,1,1,0.8733996000373736,0.42309960003737357,,5.879917860031128,,,1779972847.3351984,1779972848.3612647,1779972853.2151163,ml_jamo,hangul_learning_results\subject_s01\voice_trials\trial_voice_1779972850151.wav,,,0.22140549996402115,1.5,"[{""label"": ""ㄱ"", ""probability"": 0.23846153846153845, ""score"": 0.23846153846153845}, {""label"": ""ㅎ"", ""probability"": 0.16730769230769232, ""score"": 0.16730769230769232}, {""label"": ""ㅅ"", ""probability"": 0.12307692307692308, ""score"": 0.12307692307692308}, {""label"": ""ㅇ"", ""probability"": 0.07692307692307693, ""score"": 0.07692307692307693}, {""label"": ""ㄷ"", ""probability"": 0.06923076923076923, ""score"": 0.06923076923076923}]",2026-05-28 21:54:13,0.45030000000000003,150,250
s01,2026-05-28,3,double_consonants,Session 3: Double consonants,33,5,ㅃ,6/150.0/150.6/150,voice_ml,5,ㄲ|ㄸ|ㅃ|ㅆ|ㅉ,ㅃ,1,1,2.2540443000616506,1.8034443000616505,,8.271937608718872,,,1779972853.9676342,1779972854.9019058,1779972862.2395718,ml_jamo,hangul_learning_results\subject_s01\voice_trials\trial_voice_1779972858102.wav,,,0.22175230004359037,1.53,"[{""label"": ""ㄱ"", ""probability"": 0.1769230769230769, ""score"": 0.1769230769230769}, {""label"": ""ㅎ"", ""probability"": 0.15, ""score"": 0.15}, {""label"": ""ㅇ"", ""probability"": 0.09423076923076923, ""score"": 0.09423076923076923}, {""label"": ""ㄷ"", ""probability"": 0.0903846153846154, ""score"": 0.0903846153846154}, {""label"": ""ㅅ"", ""probability"": 0.08461538461538462, ""score"": 0.08461538461538462}]",2026-05-28 21:54:22,0.4506,150,250
s01,2026-05-28,3,double_consonants,Session 3: Double consonants,34,6,ㅃ,6/150.0/150.6/150,voice_ml,5,ㄲ|ㄸ|ㅃ|ㅆ|ㅉ,ㅃ,1,1,1.0559028000570834,0.6053028000570834,,5.30471396446228,,,1779972862.9641273,1779972863.8150601,1779972868.2688413,ml_jamo,hangul_learning_results\subject_s01\voice_trials\trial_voice_1779972865847.wav,,,0.22315079998224974,1.56,"[{""label"": ""ㅎ"", ""probability"": 0.20961538461538462, ""score"": 0.20961538461538462}, {""label"": ""ㄱ"", ""probability"": 0.11730769230769231, ""score"": 0.11730769230769231}, {""label"": ""ㅇ"", ""probability"": 0.0826923076923077, ""score"": 0.0826923076923077}, {""label"": ""ㄷ"", ""probability"": 0.08076923076923077, ""score"": 0.08076923076923077}, {""label"": ""ㅅ"", ""probability"": 0.08076923076923077, ""score"": 0.08076923076923077}]",2026-05-28 21:54:28,0.4506,150,250
s01,2026-05-28,3,double_consonants,Session 3: Double consonants,35,7,ㄲ,3/150.0/150.3/150,voice_ml,5,ㄲ|ㄸ|ㅃ|ㅆ|ㅉ,ㄲ,1,1,0.8468325999565423,0.3965325999565422,,5.136062145233154,,,1779972868.907225,1779972869.845279,1779972874.043287,ml_jamo,hangul_learning_results\subject_s01\voice_trials\trial_voice_1779972871640.wav,,,0.22094529995229095,1.53,"[{""label"": ""ㅎ"", ""probability"": 0.17307692307692307, ""score"": 0.17307692307692307}, {""label"": ""ㄱ"", ""probability"": 0.17115384615384616, ""score"": 0.17115384615384616}, {""label"": ""ㄷ"", ""probability"": 0.15192307692307694, ""score"": 0.15192307692307694}, {""label"": ""ㅈ"", ""probability"": 0.08076923076923077, ""score"": 0.08076923076923077}, {""label"": ""ㅇ"", ""probability"": 0.07884615384615384, ""score"": 0.07884615384615384}]",2026-05-28 21:54:34,0.45030000000000003,150,250
s01,2026-05-28,3,double_consonants,Session 3: Double consonants,36,8,ㅆ,4/150.0/150.4/150,voice_ml,5,ㄲ|ㄸ|ㅃ|ㅆ|ㅉ,ㅆ,1,1,1.443914300063625,0.9935143000636251,,5.84583854675293,,,1779972874.8362424,1779972875.72961,1779972880.682081,ml_jamo,hangul_learning_results\subject_s01\voice_trials\trial_voice_1779972878150.wav,,,0.22254999994765967,1.56,"[{""label"": ""ㄱ"", ""probability"": 0.1769230769230769, ""score"": 0.1769230769230769}, {""label"": ""ㅎ"", ""probability"": 0.15192307692307694, ""score"": 0.15192307692307694}, {""label"": ""ㅅ"", ""probability"": 0.15, ""score"": 0.15}, {""label"": ""ㅈ"", ""probability"": 0.12692307692307692, ""score"": 0.12692307692307692}, {""label"": ""ㅊ"", ""probability"": 0.08461538461538462, ""score"": 0.08461538461538462}]",2026-05-28 21:54:40,0.45039999999999997,150,250
s01,2026-05-28,3,double_consonants,Session 3: Double consonants,37,9,ㅉ,7/150.0/150.7/150,voice_ml,5,ㄲ|ㄸ|ㅃ|ㅆ|ㅉ,ㅉ,1,1,0.9345369999064133,0.48383699990641327,,5.0964274406433105,,,1779972881.1676815,1779972882.016388,1779972886.264109,ml_jamo,hangul_learning_results\subject_s01\voice_trials\trial_voice_1779972883957.wav,,,0.22550699999555945,1.59,"[{""label"": ""ㅈ"", ""probability"": 0.2, ""score"": 0.2}, {""label"": ""ㅎ"", ""probability"": 0.12307692307692308, ""score"": 0.12307692307692308}, {""label"": ""ㄱ"", ""probability"": 0.11923076923076922, ""score"": 0.11923076923076922}, {""label"": ""ㅊ"", ""probability"": 0.1, ""score"": 0.1}, {""label"": ""ㅌ"", ""probability"": 0.09230769230769231, ""score"": 0.09230769230769231}]",2026-05-28 21:54:46,0.4507,150,250
s01,2026-05-28,3,double_consonants,Session 3: Double consonants,38,10,ㄸ,1/150.0/150.1/150,voice_ml,5,ㄲ|ㄸ|ㅃ|ㅆ|ㅉ,ㄸ,1,1,1.353255399968475,0.9031553999684752,,6.15914511680603,,,1779972887.1319711,1779972887.809802,1779972893.2911162,ml_jamo,hangul_learning_results\subject_s01\voice_trials\trial_voice_1779972890679.wav,,,0.2317700000712648,2.1,"[{""label"": ""ㄷ"", ""probability"": 0.16730769230769232, ""score"": 0.16730769230769232}, {""label"": ""ㅇ"", ""probability"": 0.125, ""score"": 0.125}, {""label"": ""ㄹ"", ""probability"": 0.11346153846153846, ""score"": 0.11346153846153846}, {""label"": ""ㄱ"", ""probability"": 0.10192307692307692, ""score"": 0.10192307692307692}, {""label"": ""ㅁ"", ""probability"": 0.08846153846153847, ""score"": 0.08846153846153847}]",2026-05-28 21:54:53,0.4501,150,250
s01,2026-05-28,4,all_consonants,Session 4: All consonants,39,1,ㄴ,2/150,voice_ml,19,ㄱ|ㄴ|ㄷ|ㅂ|ㅅ|ㅇ|ㅈ|ㅋ|ㄹ|ㅌ|ㅍ|ㅎ|ㅁ|ㅊ|ㄲ|ㄸ|ㅃ|ㅆ|ㅉ,ㄴ,0,1,1.0419776999624446,0.8919776999624446,,5.3037941455841064,,,1779973111.6334581,1779973113.7888074,1779973116.9372523,ml_jamo,hangul_learning_results\subject_s01\voice_trials\trial_voice_1779973115664.wav,,,0.3655840000137687,1.41,"[{""label"": ""ㅇ"", ""probability"": 0.11346153846153846, ""score"": 0.11346153846153846}, {""label"": ""ㄴ"", ""probability"": 0.1, ""score"": 0.1}, {""label"": ""ㄹ"", ""probability"": 0.08461538461538462, ""score"": 0.08461538461538462}, {""label"": ""ㅁ"", ""probability"": 0.05384615384615385, ""score"": 0.05384615384615385}, {""label"": ""ㅂ"", ""probability"": 0.04038461538461539, ""score"": 0.04038461538461539}]",2026-05-28 21:58:36,0.15,150,250
s01,2026-05-28,4,all_consonants,Session 4: All consonants,40,2,ㄲ,3/150.0/150.3/150,voice_ml,19,ㄱ|ㄴ|ㄷ|ㅂ|ㅅ|ㅇ|ㅈ|ㅋ|ㄹ|ㅌ|ㅍ|ㅎ|ㅁ|ㅊ|ㄲ|ㄸ|ㅃ|ㅆ|ㅉ,ㄲ,0,1,1.5312160999746993,1.0809160999746994,,5.538693428039551,,,1779973117.8916662,1779973119.4636903,1779973123.4303596,ml_jamo,hangul_learning_results\subject_s01\voice_trials\trial_voice_1779973122037.wav,,,0.36027090006973594,1.56,"[{""label"": ""ㄲ"", ""probability"": 0.16730769230769232, ""score"": 0.16730769230769232}, {""label"": ""ㅆ"", ""probability"": 0.08461538461538462, ""score"": 0.08461538461538462}, {""label"": ""ㅃ"", ""probability"": 0.07500000000000001, ""score"": 0.07500000000000001}, {""label"": ""ㄱ"", ""probability"": 0.05961538461538462, ""score"": 0.05961538461538462}, {""label"": ""ㄸ"", ""probability"": 0.03461538461538462, ""score"": 0.03461538461538462}]",2026-05-28 21:58:43,0.45030000000000003,150,250
s01,2026-05-28,4,all_consonants,Session 4: All consonants,41,3,ㅂ,6/150,voice_ml,19,ㄱ|ㄴ|ㄷ|ㅂ|ㅅ|ㅇ|ㅈ|ㅋ|ㄹ|ㅌ|ㅍ|ㅎ|ㅁ|ㅊ|ㄲ|ㄸ|ㅃ|ㅆ|ㅉ,ㅂ,0,1,2.2247331000398844,2.0747331000398845,,5.320416212081909,,,1779973124.2324138,1779973125.205632,1779973129.55283,ml_jamo,hangul_learning_results\subject_s01\voice_trials\trial_voice_1779973128142.wav,,,0.3708318999269977,1.29,"[{""label"": ""ㄷ"", ""probability"": 0.09230769230769231, ""score"": 0.09230769230769231}, {""label"": ""ㄴ"", ""probability"": 0.07884615384615384, ""score"": 0.07884615384615384}, {""label"": ""ㅂ"", ""probability"": 0.06153846153846154, ""score"": 0.06153846153846154}, {""label"": ""ㅌ"", ""probability"": 0.046153846153846156, ""score"": 0.046153846153846156}, {""label"": ""ㅇ"", ""probability"": 0.04038461538461539, ""score"": 0.04038461538461539}]",2026-05-28 21:58:49,0.15,150,250
s01,2026-05-28,4,all_consonants,Session 4: All consonants,42,4,ㅍ,6/350,voice_ml,19,ㄱ|ㄴ|ㄷ|ㅂ|ㅅ|ㅇ|ㅈ|ㅋ|ㄹ|ㅌ|ㅍ|ㅎ|ㅁ|ㅊ|ㄲ|ㄸ|ㅃ|ㅆ|ㅉ,ㅍ,0,1,2.885624499991536,2.535624499991536,,5.672852277755737,,,1779973130.0980122,1779973130.9318976,1779973135.7708645,ml_jamo,hangul_learning_results\subject_s01\voice_trials\trial_voice_1779973134617.wav,,,0.3541881999699399,1.35,"[{""label"": ""ㅍ"", ""probability"": 0.15384615384615385, ""score"": 0.15384615384615385}, {""label"": ""ㅌ"", ""probability"": 0.10192307692307692, ""score"": 0.10192307692307692}, {""label"": ""ㅂ"", ""probability"": 0.08653846153846154, ""score"": 0.08653846153846154}, {""label"": ""ㄱ"", ""probability"": 0.0826923076923077, ""score"": 0.0826923076923077}, {""label"": ""ㅈ"", ""probability"": 0.07692307692307693, ""score"": 0.07692307692307693}]",2026-05-28 21:58:55,0.35,150,250
s01,2026-05-28,4,all_consonants,Session 4: All consonants,43,5,ㅃ,6/150.0/150.6/150,voice_ml,19,ㄱ|ㄴ|ㄷ|ㅂ|ㅅ|ㅇ|ㅈ|ㅋ|ㄹ|ㅌ|ㅍ|ㅎ|ㅁ|ㅊ|ㄲ|ㄸ|ㅃ|ㅆ|ㅉ,ㅃ,0,1,1.4745480000274256,1.0239480000274255,,4.132232666015625,,,1779973136.2280812,1779973136.9572947,1779973140.360314,ml_jamo,hangul_learning_results\subject_s01\voice_trials\trial_voice_1779973139398.wav,,,0.3545247999718413,1.53,"[{""label"": ""ㅃ"", ""probability"": 0.15576923076923077, ""score"": 0.15576923076923077}, {""label"": ""ㄲ"", ""probability"": 0.08846153846153847, ""score"": 0.08846153846153847}, {""label"": ""ㄷ"", ""probability"": 0.032692307692307694, ""score"": 0.032692307692307694}, {""label"": ""ㄸ"", ""probability"": 0.03076923076923077, ""score"": 0.03076923076923077}, {""label"": ""ㄴ"", ""probability"": 0.026923076923076925, ""score"": 0.026923076923076925}]",2026-05-28 21:59:00,0.4506,150,250
s01,2026-05-28,4,all_consonants,Session 4: All consonants,44,6,ㄹ,2/350,voice_ml,19,ㄱ|ㄴ|ㄷ|ㅂ|ㅅ|ㅇ|ㅈ|ㅋ|ㄹ|ㅌ|ㅍ|ㅎ|ㅁ|ㅊ|ㄲ|ㄸ|ㅃ|ㅆ|ㅉ,ㄹ,0,1,1.5240190000040457,1.1740190000040456,,3.9830105304718018,,,1779973140.788109,1779973141.5140975,1779973144.7711196,ml_jamo,hangul_learning_results\subject_s01\voice_trials\trial_voice_1779973143901.wav,,,0.3518127000425011,1.44,"[{""label"": ""ㄴ"", ""probability"": 0.11346153846153847, ""score"": 0.11346153846153847}, {""label"": ""ㄹ"", ""probability"": 0.1076923076923077, ""score"": 0.1076923076923077}, {""label"": ""ㅁ"", ""probability"": 0.1076923076923077, ""score"": 0.1076923076923077}, {""label"": ""ㅇ"", ""probability"": 0.08076923076923077, ""score"": 0.08076923076923077}, {""label"": ""ㅂ"", ""probability"": 0.04230769230769231, ""score"": 0.04230769230769231}]",2026-05-28 21:59:04,0.35,150,250
s01,2026-05-28,4,all_consonants,Session 4: All consonants,45,7,ㅈ,7/150,voice_ml,19,ㄱ|ㄴ|ㄷ|ㅂ|ㅅ|ㅇ|ㅈ|ㅋ|ㄹ|ㅌ|ㅍ|ㅎ|ㅁ|ㅊ|ㄲ|ㄸ|ㅃ|ㅆ|ㅉ,ㅈ,0,1,1.2451614000601694,1.0951614000601695,,3.6170494556427,,,1779973145.1810381,1779973145.8320622,1779973148.7980876,ml_jamo,hangul_learning_results\subject_s01\voice_trials\trial_voice_1779973147931.wav,,,0.38978840003255755,1.38,"[{""label"": ""ㅈ"", ""probability"": 0.36730769230769234, ""score"": 0.36730769230769234}, {""label"": ""ㅊ"", ""probability"": 0.17884615384615385, ""score"": 0.17884615384615385}, {""label"": ""ㅅ"", ""probability"": 0.05, ""score"": 0.05}, {""label"": ""ㅋ"", ""probability"": 0.05, ""score"": 0.05}, {""label"": ""ㅍ"", ""probability"": 0.04807692307692308, ""score"": 0.04807692307692308}]",2026-05-28 21:59:08,0.15,150,250
s01,2026-05-28,4,all_consonants,Session 4: All consonants,46,8,ㅉ,7/150.0/150.7/150,voice_ml,19,ㄱ|ㄴ|ㄷ|ㅂ|ㅅ|ㅇ|ㅈ|ㅋ|ㄹ|ㅌ|ㅍ|ㅎ|ㅁ|ㅊ|ㄲ|ㄸ|ㅃ|ㅆ|ㅉ,ㅉ,0,1,1.0807507000863552,0.6300507000863552,,4.627491235733032,,,1779973149.1989994,1779973149.854876,1779973153.8264906,ml_jamo,hangul_learning_results\subject_s01\voice_trials\trial_voice_1779973152004.wav,,,0.3550572000676766,1.59,"[{""label"": ""ㅃ"", ""probability"": 0.09615384615384616, ""score"": 0.09615384615384616}, {""label"": ""ㅈ"", ""probability"": 0.09230769230769231, ""score"": 0.09230769230769231}, {""label"": ""ㄲ"", ""probability"": 0.08846153846153847, ""score"": 0.08846153846153847}, {""label"": ""ㅆ"", ""probability"": 0.08461538461538462, ""score"": 0.08461538461538462}, {""label"": ""ㅉ"", ""probability"": 0.07884615384615384, ""score"": 0.07884615384615384}]",2026-05-28 21:59:13,0.4507,150,250
s01,2026-05-28,4,all_consonants,Session 4: All consonants,47,9,ㅅ,4/150,voice_ml,19,ㄱ|ㄴ|ㄷ|ㅂ|ㅅ|ㅇ|ㅈ|ㅋ|ㄹ|ㅌ|ㅍ|ㅎ|ㅁ|ㅊ|ㄲ|ㄸ|ㅃ|ㅆ|ㅉ,ㅅ,0,1,1.4708763000089675,1.3208763000089676,,3.6951305866241455,,,1779973154.4489565,1779973155.106854,1779973158.144087,ml_jamo,hangul_learning_results\subject_s01\voice_trials\trial_voice_1779973157350.wav,,,0.36302049993537366,1.35,"[{""label"": ""ㅅ"", ""probability"": 0.26346153846153847, ""score"": 0.26346153846153847}, {""label"": ""ㅊ"", ""probability"": 0.12692307692307692, ""score"": 0.12692307692307692}, {""label"": ""ㅆ"", ""probability"": 0.10384615384615385, ""score"": 0.10384615384615385}, {""label"": ""ㅋ"", ""probability"": 0.06153846153846154, ""score"": 0.06153846153846154}, {""label"": ""ㅎ"", ""probability"": 0.05576923076923077, ""score"": 0.05576923076923077}]",2026-05-28 21:59:18,0.15,150,250
s01,2026-05-28,4,all_consonants,Session 4: All consonants,48,10,ㄷ,1/150,voice_ml,19,ㄱ|ㄴ|ㄷ|ㅂ|ㅅ|ㅇ|ㅈ|ㅋ|ㄹ|ㅌ|ㅍ|ㅎ|ㅁ|ㅊ|ㄲ|ㄸ|ㅃ|ㅆ|ㅉ,ㄷ,0,1,1.1767853999044746,1.0267853999044747,,3.3758654594421387,,,1779973158.5722654,1779973159.2271426,1779973161.9481308,ml_jamo,hangul_learning_results\subject_s01\voice_trials\trial_voice_1779973161031.wav,,,0.37243089999537915,1.2,"[{""label"": ""ㄷ"", ""probability"": 0.13653846153846155, ""score"": 0.13653846153846155}, {""label"": ""ㅌ"", ""probability"": 0.12307692307692308, ""score"": 0.12307692307692308}, {""label"": ""ㅍ"", ""probability"": 0.08846153846153847, ""score"": 0.08846153846153847}, {""label"": ""ㅂ"", ""probability"": 0.06346153846153846, ""score"": 0.06346153846153846}, {""label"": ""ㅈ"", ""probability"": 0.05, ""score"": 0.05}]",2026-05-28 21:59:21,0.15,150,250
s01,2026-05-28,4,all_consonants,Session 4: All consonants,49,11,ㄱ,3/150,voice_ml,19,ㄱ|ㄴ|ㄷ|ㅂ|ㅅ|ㅇ|ㅈ|ㅋ|ㄹ|ㅌ|ㅍ|ㅎ|ㅁ|ㅊ|ㄲ|ㄸ|ㅃ|ㅆ|ㅉ,ㄱ,0,1,0.9393300999654457,0.7893300999654457,,3.145681858062744,,,1779973162.517421,1779973163.1774416,1779973165.6631029,ml_jamo,hangul_learning_results\subject_s01\voice_trials\trial_voice_1779973164827.wav,,,0.33957099996041507,1.29,"[{""label"": ""ㄱ"", ""probability"": 0.21923076923076923, ""score"": 0.21923076923076923}, {""label"": ""ㅌ"", ""probability"": 0.0826923076923077, ""score"": 0.0826923076923077}, {""label"": ""ㅍ"", ""probability"": 0.05384615384615385, ""score"": 0.05384615384615385}, {""label"": ""ㄲ"", ""probability"": 0.051923076923076926, ""score"": 0.051923076923076926}, {""label"": ""ㅈ"", ""probability"": 0.04807692307692308, ""score"": 0.04807692307692308}]",2026-05-28 21:59:25,0.15,150,250
s01,2026-05-28,4,all_consonants,Session 4: All consonants,50,12,ㅇ,9/150,voice_ml,19,ㄱ|ㄴ|ㄷ|ㅂ|ㅅ|ㅇ|ㅈ|ㅋ|ㄹ|ㅌ|ㅍ|ㅎ|ㅁ|ㅊ|ㄲ|ㄸ|ㅃ|ㅆ|ㅉ,ㅇ,0,1,0.9704690999351442,0.8204690999351442,,3.292666435241699,,,1779973166.0802846,1779973166.7259018,1779973169.372951,ml_jamo,hangul_learning_results\subject_s01\voice_trials\trial_voice_1779973168554.wav,,,0.3693375000730157,1.44,"[{""label"": ""ㅇ"", ""probability"": 0.16538461538461538, ""score"": 0.16538461538461538}, {""label"": ""ㄴ"", ""probability"": 0.10576923076923078, ""score"": 0.10576923076923078}, {""label"": ""ㅁ"", ""probability"": 0.0903846153846154, ""score"": 0.0903846153846154}, {""label"": ""ㄹ"", ""probability"": 0.03461538461538462, ""score"": 0.03461538461538462}, {""label"": ""ㅂ"", ""probability"": 0.03076923076923077, ""score"": 0.03076923076923077}]",2026-05-28 21:59:29,0.15,150,250
s01,2026-05-28,4,all_consonants,Session 4: All consonants,51,13,ㅌ,1/350,voice_ml,19,ㄱ|ㄴ|ㄷ|ㅂ|ㅅ|ㅇ|ㅈ|ㅋ|ㄹ|ㅌ|ㅍ|ㅎ|ㅁ|ㅊ|ㄲ|ㄸ|ㅃ|ㅆ|ㅉ,ㅌ,0,1,1.4178130999207497,1.0678130999207496,,3.751108169555664,,,1779973169.765933,1779973170.4125173,1779973173.5170412,ml_jamo,hangul_learning_results\subject_s01\voice_trials\trial_voice_1779973172576.wav,,,0.349678699974902,1.32,"[{""label"": ""ㅌ"", ""probability"": 0.2153846153846154, ""score"": 0.2153846153846154}, {""label"": ""ㅍ"", ""probability"": 0.19038461538461537, ""score"": 0.19038461538461537}, {""label"": ""ㅈ"", ""probability"": 0.14615384615384616, ""score"": 0.14615384615384616}, {""label"": ""ㅋ"", ""probability"": 0.0826923076923077, ""score"": 0.0826923076923077}, {""label"": ""ㄷ"", ""probability"": 0.04230769230769231, ""score"": 0.04230769230769231}]",2026-05-28 21:59:33,0.35,150,250
s01,2026-05-28,4,all_consonants,Session 4: All consonants,52,14,ㅎ,4/350,voice_ml,19,ㄱ|ㄴ|ㄷ|ㅂ|ㅅ|ㅇ|ㅈ|ㅋ|ㄹ|ㅌ|ㅍ|ㅎ|ㅁ|ㅊ|ㄲ|ㄸ|ㅃ|ㅆ|ㅉ,ㅎ,0,1,1.6898794999578968,1.3398794999578967,,4.073367595672607,,,1779973173.9813967,1779973174.6328719,1779973178.0547643,ml_jamo,hangul_learning_results\subject_s01\voice_trials\trial_voice_1779973177101.wav,,,0.3485308000817895,1.32,"[{""label"": ""ㅎ"", ""probability"": 0.17884615384615385, ""score"": 0.17884615384615385}, {""label"": ""ㅌ"", ""probability"": 0.12307692307692308, ""score"": 0.12307692307692308}, {""label"": ""ㄷ"", ""probability"": 0.07500000000000001, ""score"": 0.07500000000000001}, {""label"": ""ㅈ"", ""probability"": 0.07307692307692308, ""score"": 0.07307692307692308}, {""label"": ""ㅃ"", ""probability"": 0.057692307692307696, ""score"": 0.057692307692307696}]",2026-05-28 21:59:38,0.35,150,250
s01,2026-05-28,4,all_consonants,Session 4: All consonants,53,15,ㅆ,4/150.0/150.4/150,voice_ml,19,ㄱ|ㄴ|ㄷ|ㅂ|ㅅ|ㅇ|ㅈ|ㅋ|ㄹ|ㅌ|ㅍ|ㅎ|ㅁ|ㅊ|ㄲ|ㄸ|ㅃ|ㅆ|ㅉ,ㅆ,0,1,1.308316099923104,0.8579160999231041,,3.984804153442383,,,1779973178.4670422,1779973179.3299077,1779973182.4518464,ml_jamo,hangul_learning_results\subject_s01\voice_trials\trial_voice_1779973181597.wav,,,0.3530920000048354,1.53,"[{""label"": ""ㅆ"", ""probability"": 0.175, ""score"": 0.175}, {""label"": ""ㄲ"", ""probability"": 0.09423076923076923, ""score"": 0.09423076923076923}, {""label"": ""ㅎ"", ""probability"": 0.0826923076923077, ""score"": 0.0826923076923077}, {""label"": ""ㅅ"", ""probability"": 0.07884615384615384, ""score"": 0.07884615384615384}, {""label"": ""ㅃ"", ""probability"": 0.07500000000000001, ""score"": 0.07500000000000001}]",2026-05-28 21:59:42,0.45039999999999997,150,250
s01,2026-05-28,4,all_consonants,Session 4: All consonants,54,16,ㅋ,3/350,voice_ml,19,ㄱ|ㄴ|ㄷ|ㅂ|ㅅ|ㅇ|ㅈ|ㅋ|ㄹ|ㅌ|ㅍ|ㅎ|ㅁ|ㅊ|ㄲ|ㄸ|ㅃ|ㅆ|ㅉ,ㅋ,0,1,1.5646117000142112,1.2146117000142111,,4.438860177993774,,,1779973182.8782334,1779973183.5311387,1779973187.3170936,ml_jamo,hangul_learning_results\subject_s01\voice_trials\trial_voice_1779973185801.wav,,,0.32701179990544915,1.29,"[{""label"": ""ㅎ"", ""probability"": 0.17884615384615385, ""score"": 0.17884615384615385}, {""label"": ""ㅈ"", ""probability"": 0.10961538461538461, ""score"": 0.10961538461538461}, {""label"": ""ㅌ"", ""probability"": 0.10384615384615385, ""score"": 0.10384615384615385}, {""label"": ""ㅋ"", ""probability"": 0.07692307692307693, ""score"": 0.07692307692307693}, {""label"": ""ㅍ"", ""probability"": 0.05384615384615385, ""score"": 0.05384615384615385}]",2026-05-28 21:59:47,0.35,150,250
s01,2026-05-28,4,all_consonants,Session 4: All consonants,55,17,ㅊ,7/350,voice_ml,19,ㄱ|ㄴ|ㄷ|ㅂ|ㅅ|ㅇ|ㅈ|ㅋ|ㄹ|ㅌ|ㅍ|ㅎ|ㅁ|ㅊ|ㄲ|ㄸ|ㅃ|ㅆ|ㅉ,ㅊ,0,1,1.9051789999939501,1.55517899999395,,4.2137322425842285,,,1779973187.8690746,1779973188.4947245,1779973192.0828068,ml_jamo,hangul_learning_results\subject_s01\voice_trials\trial_voice_1779973191228.wav,,,0.358037699945271,1.41,"[{""label"": ""ㅊ"", ""probability"": 0.43846153846153846, ""score"": 0.43846153846153846}, {""label"": ""ㅈ"", ""probability"": 0.12115384615384615, ""score"": 0.12115384615384615}, {""label"": ""ㅅ"", ""probability"": 0.0826923076923077, ""score"": 0.0826923076923077}, {""label"": ""ㅋ"", ""probability"": 0.07307692307692308, ""score"": 0.07307692307692308}, {""label"": ""ㅌ"", ""probability"": 0.05961538461538462, ""score"": 0.05961538461538462}]",2026-05-28 21:59:52,0.35,150,250
s01,2026-05-28,4,all_consonants,Session 4: All consonants,56,18,ㄸ,1/150.0/150.1/150,voice_ml,19,ㄱ|ㄴ|ㄷ|ㅂ|ㅅ|ㅇ|ㅈ|ㅋ|ㄹ|ㅌ|ㅍ|ㅎ|ㅁ|ㅊ|ㄲ|ㄸ|ㅃ|ㅆ|ㅉ,ㄸ,0,1,1.687602199963294,1.237502199963294,,4.571287393569946,,,1779973192.744042,1779973193.3893194,1779973197.3153293,ml_jamo,hangul_learning_results\subject_s01\voice_trials\trial_voice_1779973196055.wav,,,0.3471715999767184,1.5,"[{""label"": ""ㄲ"", ""probability"": 0.07307692307692308, ""score"": 0.07307692307692308}, {""label"": ""ㅃ"", ""probability"": 0.06538461538461539, ""score"": 0.06538461538461539}, {""label"": ""ㄸ"", ""probability"": 0.05961538461538462, ""score"": 0.05961538461538462}, {""label"": ""ㄷ"", ""probability"": 0.04807692307692308, ""score"": 0.04807692307692308}, {""label"": ""ㅉ"", ""probability"": 0.04807692307692308, ""score"": 0.04807692307692308}]",2026-05-28 21:59:57,0.4501,150,250
s01,2026-05-28,4,all_consonants,Session 4: All consonants,57,19,ㅁ,9/350,voice_ml,19,ㄱ|ㄴ|ㄷ|ㅂ|ㅅ|ㅇ|ㅈ|ㅋ|ㄹ|ㅌ|ㅍ|ㅎ|ㅁ|ㅊ|ㄲ|ㄸ|ㅃ|ㅆ|ㅉ,ㅁ,0,1,1.4204679999966174,1.0704679999966173,,3.971421003341675,,,1779973197.706325,1779973198.3647506,1779973201.677746,ml_jamo,hangul_learning_results\subject_s01\voice_trials\trial_voice_1779973200731.wav,,,0.3315659000072628,1.47,"[{""label"": ""ㅁ"", ""probability"": 0.1423076923076923, ""score"": 0.1423076923076923}, {""label"": ""ㅇ"", ""probability"": 0.11153846153846154, ""score"": 0.11153846153846154}, {""label"": ""ㄴ"", ""probability"": 0.10961538461538461, ""score"": 0.10961538461538461}, {""label"": ""ㅂ"", ""probability"": 0.05, ""score"": 0.05}, {""label"": ""ㄹ"", ""probability"": 0.046153846153846156, ""score"": 0.046153846153846156}]",2026-05-28 22:00:01,0.35,150,250
s01,2026-05-28,4,all_consonants,Session 4: All consonants,58,20,ㅌ,1/350,voice_ml,19,ㄱ|ㄴ|ㄷ|ㅂ|ㅅ|ㅇ|ㅈ|ㅋ|ㄹ|ㅌ|ㅍ|ㅎ|ㅁ|ㅊ|ㄲ|ㄸ|ㅃ|ㅆ|ㅉ,ㅌ,0,1,1.3882143999217078,1.0382143999217077,,3.815251111984253,,,1779973202.115799,1779973202.7596512,1779973205.93105,ml_jamo,hangul_learning_results\subject_s01\voice_trials\trial_voice_1779973204928.wav,,,0.33254699991084635,1.32,"[{""label"": ""ㅌ"", ""probability"": 0.24615384615384617, ""score"": 0.24615384615384617}, {""label"": ""ㅍ"", ""probability"": 0.12692307692307692, ""score"": 0.12692307692307692}, {""label"": ""ㅈ"", ""probability"": 0.09423076923076923, ""score"": 0.09423076923076923}, {""label"": ""ㄷ"", ""probability"": 0.057692307692307696, ""score"": 0.057692307692307696}, {""label"": ""ㄱ"", ""probability"": 0.05576923076923077, ""score"": 0.05576923076923077}]",2026-05-28 22:00:05,0.35,150,250
s01,2026-05-28,4,all_consonants,Session 4: All consonants,59,21,ㅍ,6/350,voice_ml,19,ㄱ|ㄴ|ㄷ|ㅂ|ㅅ|ㅇ|ㅈ|ㅋ|ㄹ|ㅌ|ㅍ|ㅎ|ㅁ|ㅊ|ㄲ|ㄸ|ㅃ|ㅆ|ㅉ,ㅍ,0,1,2.1022776999743655,1.7522776999743654,,4.631864309310913,,,1779973206.3727946,1779973207.016512,1779973211.004659,ml_jamo,hangul_learning_results\subject_s01\voice_trials\trial_voice_1779973209851.wav,,,0.3294294000370428,1.29,"[{""label"": ""ㅍ"", ""probability"": 0.23461538461538461, ""score"": 0.23461538461538461}, {""label"": ""ㅌ"", ""probability"": 0.22499999999999998, ""score"": 0.22499999999999998}, {""label"": ""ㅋ"", ""probability"": 0.09230769230769231, ""score"": 0.09230769230769231}, {""label"": ""ㅈ"", ""probability"": 0.06346153846153846, ""score"": 0.06346153846153846}, {""label"": ""ㅂ"", ""probability"": 0.051923076923076926, ""score"": 0.051923076923076926}]",2026-05-28 22:00:11,0.35,150,250
s01,2026-05-28,4,all_consonants,Session 4: All consonants,60,22,ㄷ,1/150,voice_ml,19,ㄱ|ㄴ|ㄷ|ㅂ|ㅅ|ㅇ|ㅈ|ㅋ|ㄹ|ㅌ|ㅍ|ㅎ|ㅁ|ㅊ|ㄲ|ㄸ|ㅃ|ㅆ|ㅉ,ㄷ,0,1,1.2210542999673635,1.0710542999673636,,4.004588603973389,,,1779973211.6324348,1779973212.2645571,1779973215.6370234,ml_jamo,hangul_learning_results\subject_s01\voice_trials\trial_voice_1779973214318.wav,,,0.3594228000147268,1.41,"[{""label"": ""ㅍ"", ""probability"": 0.11730769230769231, ""score"": 0.11730769230769231}, {""label"": ""ㅂ"", ""probability"": 0.1076923076923077, ""score"": 0.1076923076923077}, {""label"": ""ㄷ"", ""probability"": 0.0826923076923077, ""score"": 0.0826923076923077}, {""label"": ""ㅌ"", ""probability"": 0.07115384615384615, ""score"": 0.07115384615384615}, {""label"": ""ㅇ"", ""probability"": 0.038461538461538464, ""score"": 0.038461538461538464}]",2026-05-28 22:00:15,0.15,150,250
s01,2026-05-28,4,all_consonants,Session 4: All consonants,61,23,ㅉ,7/150.0/150.7/150,voice_ml,19,ㄱ|ㄴ|ㄷ|ㅂ|ㅅ|ㅇ|ㅈ|ㅋ|ㄹ|ㅌ|ㅍ|ㅎ|ㅁ|ㅊ|ㄲ|ㄸ|ㅃ|ㅆ|ㅉ,ㅉ,0,1,2.291120700072497,1.8404207000724973,,4.838091611862183,,,1779973216.0700412,1779973216.7175078,1779973220.9081328,ml_jamo,hangul_learning_results\subject_s01\voice_trials\trial_voice_1779973220004.wav,,,0.35348779999185354,1.56,"[{""label"": ""ㅉ"", ""probability"": 0.2326923076923077, ""score"": 0.2326923076923077}, {""label"": ""ㄲ"", ""probability"": 0.10192307692307692, ""score"": 0.10192307692307692}, {""label"": ""ㅆ"", ""probability"": 0.08653846153846154, ""score"": 0.08653846153846154}, {""label"": ""ㅃ"", ""probability"": 0.07307692307692308, ""score"": 0.07307692307692308}, {""label"": ""ㅈ"", ""probability"": 0.05, ""score"": 0.05}]",2026-05-28 22:00:20,0.4507,150,250
s01,2026-05-28,4,all_consonants,Session 4: All consonants,62,24,ㅈ,7/150,voice_ml,19,ㄱ|ㄴ|ㄷ|ㅂ|ㅅ|ㅇ|ㅈ|ㅋ|ㄹ|ㅌ|ㅍ|ㅎ|ㅁ|ㅊ|ㄲ|ㄸ|ㅃ|ㅆ|ㅉ,ㅈ,0,1,0.9370482000522316,0.7870482000522315,,3.424708604812622,,,1779973221.3412933,1779973221.9796813,1779973224.766002,ml_jamo,hangul_learning_results\subject_s01\voice_trials\trial_voice_1779973223748.wav,,,0.3313501999946311,1.38,"[{""label"": ""ㅊ"", ""probability"": 0.20576923076923076, ""score"": 0.20576923076923076}, {""label"": ""ㅈ"", ""probability"": 0.14615384615384613, ""score"": 0.14615384615384613}, {""label"": ""ㅌ"", ""probability"": 0.10192307692307692, ""score"": 0.10192307692307692}, {""label"": ""ㅅ"", ""probability"": 0.08653846153846154, ""score"": 0.08653846153846154}, {""label"": ""ㅍ"", ""probability"": 0.07884615384615384, ""score"": 0.07884615384615384}]",2026-05-28 22:00:24,0.15,150,250
s01,2026-05-28,4,all_consonants,Session 4: All consonants,63,25,ㅅ,4/150,voice_ml,19,ㄱ|ㄴ|ㄷ|ㅂ|ㅅ|ㅇ|ㅈ|ㅋ|ㄹ|ㅌ|ㅍ|ㅎ|ㅁ|ㅊ|ㄲ|ㄸ|ㅃ|ㅆ|ㅉ,ㅅ,0,1,1.003053600084968,0.8530536000849679,,3.5691587924957275,,,1779973225.202119,1779973225.8572605,1779973228.771278,ml_jamo,hangul_learning_results\subject_s01\voice_trials\trial_voice_1779973227659.wav,,,0.33774310001172125,1.38,"[{""label"": ""ㅅ"", ""probability"": 0.3403846153846154, ""score"": 0.3403846153846154}, {""label"": ""ㅊ"", ""probability"": 0.10192307692307692, ""score"": 0.10192307692307692}, {""label"": ""ㅆ"", ""probability"": 0.08076923076923077, ""score"": 0.08076923076923077}, {""label"": ""ㅋ"", ""probability"": 0.051923076923076926, ""score"": 0.051923076923076926}, {""label"": ""ㅎ"", ""probability"": 0.05, ""score"": 0.05}]",2026-05-28 22:00:28,0.15,150,250
s01,2026-05-28,4,all_consonants,Session 4: All consonants,64,26,ㅊ,7/350,voice_ml,19,ㄱ|ㄴ|ㄷ|ㅂ|ㅅ|ㅇ|ㅈ|ㅋ|ㄹ|ㅌ|ㅍ|ㅎ|ㅁ|ㅊ|ㄲ|ㄸ|ㅃ|ㅆ|ㅉ,ㅊ,0,1,1.3562100999988616,1.0062100999988615,,3.8018436431884766,,,1779973229.286045,1779973229.9376898,1779973233.0878887,ml_jamo,hangul_learning_results\subject_s01\voice_trials\trial_voice_1779973232093.wav,,,0.3485741999465972,1.38,"[{""label"": ""ㅊ"", ""probability"": 0.30192307692307696, ""score"": 0.30192307692307696}, {""label"": ""ㅈ"", ""probability"": 0.1423076923076923, ""score"": 0.1423076923076923}, {""label"": ""ㅅ"", ""probability"": 0.11923076923076922, ""score"": 0.11923076923076922}, {""label"": ""ㅌ"", ""probability"": 0.08076923076923077, ""score"": 0.08076923076923077}, {""label"": ""ㅋ"", ""probability"": 0.057692307692307696, ""score"": 0.057692307692307696}]",2026-05-28 22:00:33,0.35,150,250
s01,2026-05-28,4,all_consonants,Session 4: All consonants,65,27,ㅆ,4/150.0/150.4/150,voice_ml,19,ㄱ|ㄴ|ㄷ|ㅂ|ㅅ|ㅇ|ㅈ|ㅋ|ㄹ|ㅌ|ㅍ|ㅎ|ㅁ|ㅊ|ㄲ|ㄸ|ㅃ|ㅆ|ㅉ,ㅆ,0,1,1.5662917000008747,1.1158917000008748,,4.116071462631226,,,1779973233.5419302,1779973234.1978285,1779973237.6580017,ml_jamo,hangul_learning_results\subject_s01\voice_trials\trial_voice_1779973236757.wav,,,0.34235139994416386,1.53,"[{""label"": ""ㅆ"", ""probability"": 0.2596153846153846, ""score"": 0.2596153846153846}, {""label"": ""ㅉ"", ""probability"": 0.10961538461538461, ""score"": 0.10961538461538461}, {""label"": ""ㅃ"", ""probability"": 0.07115384615384615, ""score"": 0.07115384615384615}, {""label"": ""ㅅ"", ""probability"": 0.06346153846153846, ""score"": 0.06346153846153846}, {""label"": ""ㄲ"", ""probability"": 0.04423076923076923, ""score"": 0.04423076923076923}]",2026-05-28 22:00:37,0.45039999999999997,150,250
s01,2026-05-28,4,all_consonants,Session 4: All consonants,66,28,ㅋ,3/350,voice_ml,19,ㄱ|ㄴ|ㄷ|ㅂ|ㅅ|ㅇ|ㅈ|ㅋ|ㄹ|ㅌ|ㅍ|ㅎ|ㅁ|ㅊ|ㄲ|ㄸ|ㅃ|ㅆ|ㅉ,ㅋ,0,1,1.4710064999526367,1.1210064999526366,,4.717655181884766,,,1779973238.0770502,1779973238.7144651,1779973242.7947054,ml_jamo,hangul_learning_results\subject_s01\voice_trials\trial_voice_1779973240966.wav,,,0.38098490005359054,1.32,"[{""label"": ""ㅈ"", ""probability"": 0.1826923076923077, ""score"": 0.1826923076923077}, {""label"": ""ㅌ"", ""probability"": 0.10961538461538461, ""score"": 0.10961538461538461}, {""label"": ""ㅍ"", ""probability"": 0.10576923076923078, ""score"": 0.10576923076923078}, {""label"": ""ㅊ"", ""probability"": 0.09423076923076923, ""score"": 0.09423076923076923}, {""label"": ""ㅋ"", ""probability"": 0.0903846153846154, ""score"": 0.0903846153846154}]",2026-05-28 22:00:42,0.35,150,250
s01,2026-05-28,4,all_consonants,Session 4: All consonants,67,29,ㅁ,9/350,voice_ml,19,ㄱ|ㄴ|ㄷ|ㅂ|ㅅ|ㅇ|ㅈ|ㅋ|ㄹ|ㅌ|ㅍ|ㅎ|ㅁ|ㅊ|ㄲ|ㄸ|ㅃ|ㅆ|ㅉ,ㅁ,0,1,1.6175372999859974,1.2675372999859973,,4.098843812942505,,,1779973243.1982257,1779973243.822709,1779973247.2970695,ml_jamo,hangul_learning_results\subject_s01\voice_trials\trial_voice_1779973246336.wav,,,0.3773198000853881,1.44,"[{""label"": ""ㅁ"", ""probability"": 0.15000000000000002, ""score"": 0.15000000000000002}, {""label"": ""ㄴ"", ""probability"": 0.11346153846153847, ""score"": 0.11346153846153847}, {""label"": ""ㅇ"", ""probability"": 0.10192307692307692, ""score"": 0.10192307692307692}, {""label"": ""ㄹ"", ""probability"": 0.05576923076923077, ""score"": 0.05576923076923077}, {""label"": ""ㅂ"", ""probability"": 0.04038461538461539, ""score"": 0.04038461538461539}]",2026-05-28 22:00:47,0.35,150,250
s01,2026-05-28,4,all_consonants,Session 4: All consonants,68,30,ㅇ,9/150,voice_ml,19,ㄱ|ㄴ|ㄷ|ㅂ|ㅅ|ㅇ|ㅈ|ㅋ|ㄹ|ㅌ|ㅍ|ㅎ|ㅁ|ㅊ|ㄲ|ㄸ|ㅃ|ㅆ|ㅉ,ㅇ,0,1,0.9783504999941215,0.8283504999941215,,3.406067371368408,,,1779973247.7737591,1779973248.4183974,1779973251.1798265,ml_jamo,hangul_learning_results\subject_s01\voice_trials\trial_voice_1779973250286.wav,,,0.3566675999900326,1.41,"[{""label"": ""ㅇ"", ""probability"": 0.16923076923076924, ""score"": 0.16923076923076924}, {""label"": ""ㄴ"", ""probability"": 0.05961538461538462, ""score"": 0.05961538461538462}, {""label"": ""ㅂ"", ""probability"": 0.05576923076923077, ""score"": 0.05576923076923077}, {""label"": ""ㄹ"", ""probability"": 0.04038461538461539, ""score"": 0.04038461538461539}, {""label"": ""ㅁ"", ""probability"": 0.04038461538461539, ""score"": 0.04038461538461539}]",2026-05-28 22:00:51,0.15,150,250
s01,2026-05-28,4,all_consonants,Session 4: All consonants,69,31,ㅎ,4/350,voice_ml,19,ㄱ|ㄴ|ㄷ|ㅂ|ㅅ|ㅇ|ㅈ|ㅋ|ㄹ|ㅌ|ㅍ|ㅎ|ㅁ|ㅊ|ㄲ|ㄸ|ㅃ|ㅆ|ㅉ,ㅎ,0,1,1.4821152000222355,1.1321152000222354,,3.9702916145324707,,,1779973252.2199972,1779973253.0631387,1779973256.1902888,ml_jamo,hangul_learning_results\subject_s01\voice_trials\trial_voice_1779973255339.wav,,,0.3569755000062287,1.32,"[{""label"": ""ㅎ"", ""probability"": 0.18653846153846154, ""score"": 0.18653846153846154}, {""label"": ""ㅌ"", ""probability"": 0.09807692307692309, ""score"": 0.09807692307692309}, {""label"": ""ㄱ"", ""probability"": 0.08653846153846154, ""score"": 0.08653846153846154}, {""label"": ""ㅈ"", ""probability"": 0.07884615384615384, ""score"": 0.07884615384615384}, {""label"": ""ㄷ"", ""probability"": 0.06153846153846154, ""score"": 0.06153846153846154}]",2026-05-28 22:00:56,0.35,150,250
s01,2026-05-28,4,all_consonants,Session 4: All consonants,70,32,ㅂ,6/150,voice_ml,19,ㄱ|ㄴ|ㄷ|ㅂ|ㅅ|ㅇ|ㅈ|ㅋ|ㄹ|ㅌ|ㅍ|ㅎ|ㅁ|ㅊ|ㄲ|ㄸ|ㅃ|ㅆ|ㅉ,ㅂ,0,1,1.286746000056155,1.1367460000561551,,3.611208438873291,,,1779973256.6000366,1779973257.2373679,1779973260.211245,ml_jamo,hangul_learning_results\subject_s01\voice_trials\trial_voice_1779973259319.wav,,,0.33307219995185733,1.32,"[{""label"": ""ㅂ"", ""probability"": 0.1326923076923077, ""score"": 0.1326923076923077}, {""label"": ""ㄴ"", ""probability"": 0.09615384615384616, ""score"": 0.09615384615384616}, {""label"": ""ㄷ"", ""probability"": 0.07884615384615384, ""score"": 0.07884615384615384}, {""label"": ""ㅍ"", ""probability"": 0.06730769230769232, ""score"": 0.06730769230769232}, {""label"": ""ㅌ"", ""probability"": 0.057692307692307696, ""score"": 0.057692307692307696}]",2026-05-28 22:01:00,0.15,150,250
s01,2026-05-28,4,all_consonants,Session 4: All consonants,71,33,ㄲ,3/150.0/150.3/150,voice_ml,19,ㄱ|ㄴ|ㄷ|ㅂ|ㅅ|ㅇ|ㅈ|ㅋ|ㄹ|ㅌ|ㅍ|ㅎ|ㅁ|ㅊ|ㄲ|ㄸ|ㅃ|ㅆ|ㅉ,ㄲ,0,1,1.302087499992922,0.8517874999929219,,3.751227378845215,,,1779973260.6735172,1779973261.3299026,1779973264.4247446,ml_jamo,hangul_learning_results\subject_s01\voice_trials\trial_voice_1779973263560.wav,,,0.34761410008650273,1.5,"[{""label"": ""ㄲ"", ""probability"": 0.12115384615384617, ""score"": 0.12115384615384617}, {""label"": ""ㅃ"", ""probability"": 0.1076923076923077, ""score"": 0.1076923076923077}, {""label"": ""ㄷ"", ""probability"": 0.04038461538461539, ""score"": 0.04038461538461539}, {""label"": ""ㄱ"", ""probability"": 0.038461538461538464, ""score"": 0.038461538461538464}, {""label"": ""ㄴ"", ""probability"": 0.03461538461538462, ""score"": 0.03461538461538462}]",2026-05-28 22:01:04,0.45030000000000003,150,250
s01,2026-05-28,4,all_consonants,Session 4: All consonants,72,34,ㅃ,6/150.0/150.6/150,voice_ml,19,ㄱ|ㄴ|ㄷ|ㅂ|ㅅ|ㅇ|ㅈ|ㅋ|ㄹ|ㅌ|ㅍ|ㅎ|ㅁ|ㅊ|ㄲ|ㄸ|ㅃ|ㅆ|ㅉ,ㅃ,0,1,1.3400651999982074,0.8894651999982074,,3.898080587387085,,,1779973264.8630052,1779973265.517785,1779973268.7610857,ml_jamo,hangul_learning_results\subject_s01\voice_trials\trial_voice_1779973267871.wav,,,0.34025719994679093,1.53,"[{""label"": ""ㅃ"", ""probability"": 0.15384615384615385, ""score"": 0.15384615384615385}, {""label"": ""ㄲ"", ""probability"": 0.13076923076923078, ""score"": 0.13076923076923078}, {""label"": ""ㄱ"", ""probability"": 0.06346153846153846, ""score"": 0.06346153846153846}, {""label"": ""ㅆ"", ""probability"": 0.038461538461538464, ""score"": 0.038461538461538464}, {""label"": ""ㅎ"", ""probability"": 0.03653846153846154, ""score"": 0.03653846153846154}]",2026-05-28 22:01:08,0.4506,150,250
s01,2026-05-28,4,all_consonants,Session 4: All consonants,73,35,ㄸ,1/150.0/150.1/150,voice_ml,19,ㄱ|ㄴ|ㄷ|ㅂ|ㅅ|ㅇ|ㅈ|ㅋ|ㄹ|ㅌ|ㅍ|ㅎ|ㅁ|ㅊ|ㄲ|ㄸ|ㅃ|ㅆ|ㅉ,ㄸ,0,1,1.0537527999840677,0.6036527999840677,,3.96102237701416,,,1779973269.2249522,1779973269.8904765,1779973273.1859746,ml_jamo,hangul_learning_results\subject_s01\voice_trials\trial_voice_1779973271952.wav,,,0.33461850008461624,1.53,"[{""label"": ""ㅃ"", ""probability"": 0.20576923076923076, ""score"": 0.20576923076923076}, {""label"": ""ㄲ"", ""probability"": 0.0826923076923077, ""score"": 0.0826923076923077}, {""label"": ""ㄸ"", ""probability"": 0.05961538461538462, ""score"": 0.05961538461538462}, {""label"": ""ㄷ"", ""probability"": 0.04807692307692308, ""score"": 0.04807692307692308}, {""label"": ""ㅉ"", ""probability"": 0.032692307692307694, ""score"": 0.032692307692307694}]",2026-05-28 22:01:13,0.4501,150,250
s01,2026-05-28,4,all_consonants,Session 4: All consonants,74,36,ㄹ,2/350,voice_ml,19,ㄱ|ㄴ|ㄷ|ㅂ|ㅅ|ㅇ|ㅈ|ㅋ|ㄹ|ㅌ|ㅍ|ㅎ|ㅁ|ㅊ|ㄲ|ㄸ|ㅃ|ㅆ|ㅉ,ㄹ,0,1,1.0307729999767616,0.6807729999767617,,3.764218330383301,,,1779973273.5847282,1779973274.2297964,1779973277.3489466,ml_jamo,hangul_learning_results\subject_s01\voice_trials\trial_voice_1779973276216.wav,,,0.3405285000335425,1.47,"[{""label"": ""ㄹ"", ""probability"": 0.23076923076923075, ""score"": 0.23076923076923075}, {""label"": ""ㅇ"", ""probability"": 0.11346153846153846, ""score"": 0.11346153846153846}, {""label"": ""ㄴ"", ""probability"": 0.06346153846153846, ""score"": 0.06346153846153846}, {""label"": ""ㅁ"", ""probability"": 0.028846153846153848, ""score"": 0.028846153846153848}, {""label"": ""ㄷ"", ""probability"": 0.023076923076923078, ""score"": 0.023076923076923078}]",2026-05-28 22:01:17,0.35,150,250
s01,2026-05-28,4,all_consonants,Session 4: All consonants,75,37,ㄱ,3/150,voice_ml,19,ㄱ|ㄴ|ㄷ|ㅂ|ㅅ|ㅇ|ㅈ|ㅋ|ㄹ|ㅌ|ㅍ|ㅎ|ㅁ|ㅊ|ㄲ|ㄸ|ㅃ|ㅆ|ㅉ,ㄱ,0,1,1.4072552000870928,1.257255200087093,,3.6135454177856445,,,1779973277.8482764,1779973278.4957173,1779973281.4618218,ml_jamo,hangul_learning_results\subject_s01\voice_trials\trial_voice_1779973280641.wav,,,0.33492079994175583,1.32,"[{""label"": ""ㄱ"", ""probability"": 0.2173076923076923, ""score"": 0.2173076923076923}, {""label"": ""ㄲ"", ""probability"": 0.06153846153846154, ""score"": 0.06153846153846154}, {""label"": ""ㄷ"", ""probability"": 0.05576923076923077, ""score"": 0.05576923076923077}, {""label"": ""ㅎ"", ""probability"": 0.046153846153846156, ""score"": 0.046153846153846156}, {""label"": ""ㅃ"", ""probability"": 0.03461538461538462, ""score"": 0.03461538461538462}]",2026-05-28 22:01:21,0.15,150,250
s01,2026-05-28,4,all_consonants,Session 4: All consonants,76,38,ㄴ,2/150,voice_ml,19,ㄱ|ㄴ|ㄷ|ㅂ|ㅅ|ㅇ|ㅈ|ㅋ|ㄹ|ㅌ|ㅍ|ㅎ|ㅁ|ㅊ|ㄲ|ㄸ|ㅃ|ㅆ|ㅉ,ㄴ,0,1,0.7889734000200406,0.6389734000200405,,3.324193000793457,,,1779973281.9309976,1779973282.5637383,1779973285.2551906,ml_jamo,hangul_learning_results\subject_s01\voice_trials\trial_voice_1779973284306.wav,,,0.33393329998943955,1.47,"[{""label"": ""ㄴ"", ""probability"": 0.15000000000000002, ""score"": 0.15000000000000002}, {""label"": ""ㅁ"", ""probability"": 0.12307692307692308, ""score"": 0.12307692307692308}, {""label"": ""ㅇ"", ""probability"": 0.07307692307692308, ""score"": 0.07307692307692308}, {""label"": ""ㅂ"", ""probability"": 0.05, ""score"": 0.05}, {""label"": ""ㄷ"", ""probability"": 0.032692307692307694, ""score"": 0.032692307692307694}]",2026-05-28 22:01:25,0.15,150,250
s01,2026-05-28,5,basic_vowels,Session 5: Basic vowels,77,1,ㅗ,"5/150.5/d,2/i/100.2/150",voice_ml,6,ㅣ|ㅡ|ㅏ|ㅓ|ㅗ|ㅜ,ㅗ,0,1,1.7601483000908047,1.3594483000908046,,5.122621059417725,,,1779973286.9886825,1779973288.4462798,1779973292.1113036,ml_jamo,hangul_learning_results\subject_s01\voice_trials\trial_voice_1779973291042.wav,,,0.35928750003222376,1.38,"[{""label"": ""ㅗ"", ""probability"": 0.1423076923076923, ""score"": 0.1423076923076923}, {""label"": ""ㅜ"", ""probability"": 0.08076923076923077, ""score"": 0.08076923076923077}, {""label"": ""ㅡ"", ""probability"": 0.06346153846153846, ""score"": 0.06346153846153846}, {""label"": ""ㅓ"", ""probability"": 0.04423076923076923, ""score"": 0.04423076923076923}, {""label"": ""ㅏ"", ""probability"": 0.019230769230769232, ""score"": 0.019230769230769232}]",2026-05-28 22:01:32,0.4007,150,250
s01,2026-05-28,5,basic_vowels,Session 5: Basic vowels,78,2,ㅡ,5/350,voice_ml,6,ㅣ|ㅡ|ㅏ|ㅓ|ㅗ|ㅜ,ㅡ,0,1,1.4086211000103503,1.0586211000103503,,4.085997581481934,,,1779973293.1049662,1779973294.112725,1779973297.1909637,ml_jamo,hangul_learning_results\subject_s01\voice_trials\trial_voice_1779973296341.wav,,,0.3246686999918893,1.38,"[{""label"": ""ㅡ"", ""probability"": 0.04807692307692308, ""score"": 0.04807692307692308}, {""label"": ""ㅜ"", ""probability"": 0.026923076923076925, ""score"": 0.026923076923076925}, {""label"": ""ㅗ"", ""probability"": 0.011538461538461539, ""score"": 0.011538461538461539}, {""label"": ""ㅓ"", ""probability"": 0.009615384615384616, ""score"": 0.009615384615384616}, {""label"": ""ㅏ"", ""probability"": 0.007692307692307693, ""score"": 0.007692307692307693}]",2026-05-28 22:01:37,0.35,150,250
s01,2026-05-28,5,basic_vowels,Session 5: Basic vowels,79,3,ㅣ,5/150,voice_ml,6,ㅣ|ㅡ|ㅏ|ㅓ|ㅗ|ㅜ,ㅣ,0,1,1.1447892000433058,0.9947892000433057,,3.801464319229126,,,1779973297.7268136,1779973298.6405392,1779973301.5282779,ml_jamo,hangul_learning_results\subject_s01\voice_trials\trial_voice_1779973300677.wav,,,0.34284040005877614,1.41,"[{""label"": ""ㅣ"", ""probability"": 0.08076923076923077, ""score"": 0.08076923076923077}, {""label"": ""ㅜ"", ""probability"": 0.046153846153846156, ""score"": 0.046153846153846156}, {""label"": ""ㅡ"", ""probability"": 0.026923076923076925, ""score"": 0.026923076923076925}, {""label"": ""ㅓ"", ""probability"": 0.023076923076923078, ""score"": 0.023076923076923078}, {""label"": ""ㅏ"", ""probability"": 0.01730769230769231, ""score"": 0.01730769230769231}]",2026-05-28 22:01:41,0.15,150,250
s01,2026-05-28,5,basic_vowels,Session 5: Basic vowels,80,4,ㅜ,"5/150.5/d,8/i/100.8/150",voice_ml,6,ㅣ|ㅡ|ㅏ|ㅓ|ㅗ|ㅜ,ㅜ,0,1,1.087547600036487,0.686247600036487,,3.5427048206329346,,,1779973301.9991996,1779973302.6520236,1779973305.5419044,ml_jamo,hangul_learning_results\subject_s01\voice_trials\trial_voice_1779973304622.wav,,,0.378227400011383,1.41,"[{""label"": ""ㅜ"", ""probability"": 0.2153846153846154, ""score"": 0.2153846153846154}, {""label"": ""ㅗ"", ""probability"": 0.07307692307692308, ""score"": 0.07307692307692308}, {""label"": ""ㅏ"", ""probability"": 0.04807692307692308, ""score"": 0.04807692307692308}, {""label"": ""ㅓ"", ""probability"": 0.046153846153846156, ""score"": 0.046153846153846156}, {""label"": ""ㅡ"", ""probability"": 0.019230769230769232, ""score"": 0.019230769230769232}]",2026-05-28 22:01:45,0.4013,150,250
s01,2026-05-28,5,basic_vowels,Session 5: Basic vowels,81,5,ㅓ,"5/150.5/d,6/i/100.6/150",voice_ml,6,ㅣ|ㅡ|ㅏ|ㅓ|ㅗ|ㅜ,ㅓ,0,1,1.2331985000055283,0.8320985000055283,,3.629011392593384,,,1779973306.004943,1779973306.7070785,1779973309.6339543,ml_jamo,hangul_learning_results\subject_s01\voice_trials\trial_voice_1779973308806.wav,,,0.33636590000241995,1.44,"[{""label"": ""ㅓ"", ""probability"": 0.24615384615384617, ""score"": 0.24615384615384617}, {""label"": ""ㅏ"", ""probability"": 0.11923076923076924, ""score"": 0.11923076923076924}, {""label"": ""ㅜ"", ""probability"": 0.08653846153846154, ""score"": 0.08653846153846154}, {""label"": ""ㅗ"", ""probability"": 0.0826923076923077, ""score"": 0.0826923076923077}, {""label"": ""ㅡ"", ""probability"": 0.019230769230769232, ""score"": 0.019230769230769232}]",2026-05-28 22:01:49,0.4011,150,250
s01,2026-05-28,5,basic_vowels,Session 5: Basic vowels,82,6,ㅏ,"5/150.5/d,4/i/100.4/150",voice_ml,6,ㅣ|ㅡ|ㅏ|ㅓ|ㅗ|ㅜ,ㅏ,0,1,1.0229380000382662,0.6220380000382661,,3.5696845054626465,,,1779973310.0179365,1779973310.65998,1779973313.587621,ml_jamo,hangul_learning_results\subject_s01\voice_trials\trial_voice_1779973312587.wav,,,0.3607627999735996,1.44,"[{""label"": ""ㅏ"", ""probability"": 0.45384615384615384, ""score"": 0.45384615384615384}, {""label"": ""ㅓ"", ""probability"": 0.1076923076923077, ""score"": 0.1076923076923077}, {""label"": ""ㅗ"", ""probability"": 0.03076923076923077, ""score"": 0.03076923076923077}, {""label"": ""ㅜ"", ""probability"": 0.01730769230769231, ""score"": 0.01730769230769231}, {""label"": ""ㅡ"", ""probability"": 0.011538461538461539, ""score"": 0.011538461538461539}]",2026-05-28 22:01:53,0.4009,150,250
s01,2026-05-28,5,basic_vowels,Session 5: Basic vowels,83,7,ㅜ,"5/150.5/d,8/i/100.8/150",voice_ml,6,ㅣ|ㅡ|ㅏ|ㅓ|ㅗ|ㅜ,ㅜ,0,1,0.9390578999882564,0.5377578999882564,,3.438023805618286,,,1779973314.0508552,1779973314.7113695,1779973317.488879,ml_jamo,hangul_learning_results\subject_s01\voice_trials\trial_voice_1779973316583.wav,,,0.33528470003511757,1.47,"[{""label"": ""ㅜ"", ""probability"": 0.19038461538461537, ""score"": 0.19038461538461537}, {""label"": ""ㅓ"", ""probability"": 0.07692307692307693, ""score"": 0.07692307692307693}, {""label"": ""ㅗ"", ""probability"": 0.06923076923076923, ""score"": 0.06923076923076923}, {""label"": ""ㅏ"", ""probability"": 0.03461538461538462, ""score"": 0.03461538461538462}, {""label"": ""ㅡ"", ""probability"": 0.026923076923076925, ""score"": 0.026923076923076925}]",2026-05-28 22:01:57,0.4013,150,250
s01,2026-05-28,5,basic_vowels,Session 5: Basic vowels,84,8,ㅡ,5/350,voice_ml,6,ㅣ|ㅡ|ㅏ|ㅓ|ㅗ|ㅜ,ㅡ,0,1,1.0965970000252128,0.7465970000252128,,3.7909820079803467,,,1779973318.0299346,1779973318.919776,1779973321.8209167,ml_jamo,hangul_learning_results\subject_s01\voice_trials\trial_voice_1779973320873.wav,,,0.37197049998212606,1.38,"[{""label"": ""ㅡ"", ""probability"": 0.057692307692307696, ""score"": 0.057692307692307696}, {""label"": ""ㅜ"", ""probability"": 0.04423076923076923, ""score"": 0.04423076923076923}, {""label"": ""ㅏ"", ""probability"": 0.013461538461538462, ""score"": 0.013461538461538462}, {""label"": ""ㅣ"", ""probability"": 0.013461538461538462, ""score"": 0.013461538461538462}, {""label"": ""ㅗ"", ""probability"": 0.011538461538461539, ""score"": 0.011538461538461539}]",2026-05-28 22:02:01,0.35,150,250
s01,2026-05-28,5,basic_vowels,Session 5: Basic vowels,85,9,ㅓ,"5/150.5/d,6/i/100.6/150",voice_ml,6,ㅣ|ㅡ|ㅏ|ㅓ|ㅗ|ㅜ,ㅓ,0,1,0.932286600000225,0.531186600000225,,3.3601620197296143,,,1779973322.287439,1779973322.918863,1779973325.6476011,ml_jamo,hangul_learning_results\subject_s01\voice_trials\trial_voice_1779973324731.wav,,,0.33360519993584603,1.41,"[{""label"": ""ㅓ"", ""probability"": 0.35, ""score"": 0.35}, {""label"": ""ㅏ"", ""probability"": 0.18461538461538463, ""score"": 0.18461538461538463}, {""label"": ""ㅜ"", ""probability"": 0.06923076923076923, ""score"": 0.06923076923076923}, {""label"": ""ㅗ"", ""probability"": 0.03653846153846154, ""score"": 0.03653846153846154}, {""label"": ""ㅡ"", ""probability"": 0.011538461538461539, ""score"": 0.011538461538461539}]",2026-05-28 22:02:05,0.4011,150,250
s01,2026-05-28,5,basic_vowels,Session 5: Basic vowels,86,10,ㅏ,"5/150.5/d,4/i/100.4/150",voice_ml,6,ㅣ|ㅡ|ㅏ|ㅓ|ㅗ|ㅜ,ㅏ,0,1,0.9934596000239253,0.5925596000239253,,3.475131034851074,,,1779973326.0704389,1779973326.7915716,1779973329.54557,ml_jamo,hangul_learning_results\subject_s01\voice_trials\trial_voice_1779973328701.wav,,,0.32662840001285076,1.44,"[{""label"": ""ㅏ"", ""probability"": 0.3923076923076923, ""score"": 0.3923076923076923}, {""label"": ""ㅓ"", ""probability"": 0.14423076923076922, ""score"": 0.14423076923076922}, {""label"": ""ㅜ"", ""probability"": 0.026923076923076925, ""score"": 0.026923076923076925}, {""label"": ""ㅡ"", ""probability"": 0.015384615384615385, ""score"": 0.015384615384615385}, {""label"": ""ㅣ"", ""probability"": 0.015384615384615385, ""score"": 0.015384615384615385}]",2026-05-28 22:02:09,0.4009,150,250
s01,2026-05-28,5,basic_vowels,Session 5: Basic vowels,87,11,ㅗ,"5/150.5/d,2/i/100.2/150",voice_ml,6,ㅣ|ㅡ|ㅏ|ㅓ|ㅗ|ㅜ,ㅗ,0,1,0.9544135000323877,0.5537135000323876,,3.3748161792755127,,,1779973329.9961078,1779973330.622619,1779973333.370924,ml_jamo,hangul_learning_results\subject_s01\voice_trials\trial_voice_1779973332489.wav,,,0.33086810004897416,1.44,"[{""label"": ""ㅗ"", ""probability"": 0.11538461538461539, ""score"": 0.11538461538461539}, {""label"": ""ㅜ"", ""probability"": 0.09807692307692309, ""score"": 0.09807692307692309}, {""label"": ""ㅓ"", ""probability"": 0.05384615384615385, ""score"": 0.05384615384615385}, {""label"": ""ㅡ"", ""probability"": 0.04230769230769231, ""score"": 0.04230769230769231}, {""label"": ""ㅏ"", ""probability"": 0.032692307692307694, ""score"": 0.032692307692307694}]",2026-05-28 22:02:13,0.4007,150,250
s01,2026-05-28,5,basic_vowels,Session 5: Basic vowels,88,12,ㅣ,5/150,voice_ml,6,ㅣ|ㅡ|ㅏ|ㅓ|ㅗ|ㅜ,ㅣ,0,1,1.1886698000598699,1.03866980005987,,3.5449488162994385,,,1779973333.7907174,1779973334.5140991,1779973337.3356662,ml_jamo,hangul_learning_results\subject_s01\voice_trials\trial_voice_1779973336487.wav,,,0.3701209999853745,1.32,"[{""label"": ""ㅣ"", ""probability"": 0.07500000000000001, ""score"": 0.07500000000000001}, {""label"": ""ㅜ"", ""probability"": 0.028846153846153848, ""score"": 0.028846153846153848}, {""label"": ""ㅡ"", ""probability"": 0.019230769230769232, ""score"": 0.019230769230769232}, {""label"": ""ㅓ"", ""probability"": 0.015384615384615385, ""score"": 0.015384615384615385}, {""label"": ""ㅏ"", ""probability"": 0.011538461538461539, ""score"": 0.011538461538461539}]",2026-05-28 22:02:17,0.15,150,250
s01,2026-05-28,6,double_vowels,Session 6: Double vowels,89,1,ㅛ,"5/150.5/d,2/i/100.2/150.0/150.5/150.5/d,2/i/100.2/150",voice_ml,5,ㅢ|ㅑ|ㅕ|ㅛ|ㅠ,ㅛ,0,1,1.6404276000102982,0.6885276000102981,,4.5237085819244385,,,1779973338.9670298,1779973340.1786008,1779973343.4907384,ml_jamo,hangul_learning_results\subject_s01\voice_trials\trial_voice_1779973342652.wav,,,0.34963249997235835,1.41,"[{""label"": ""ㅛ"", ""probability"": 0.11538461538461539, ""score"": 0.11538461538461539}, {""label"": ""ㅕ"", ""probability"": 0.07115384615384615, ""score"": 0.07115384615384615}, {""label"": ""ㅑ"", ""probability"": 0.05, ""score"": 0.05}, {""label"": ""ㅠ"", ""probability"": 0.03653846153846154, ""score"": 0.03653846153846154}, {""label"": ""ㅢ"", ""probability"": 0.009615384615384616, ""score"": 0.009615384615384616}]",2026-05-28 22:02:23,0.9519000000000001,150,250
s01,2026-05-28,6,double_vowels,Session 6: Double vowels,90,2,ㅕ,"5/150.5/d,6/i/100.6/150.0/150.5/150.5/d,6/i/100.6/150",voice_ml,5,ㅢ|ㅑ|ㅕ|ㅛ|ㅠ,ㅕ,0,1,1.3549146999139339,0.4022146999139339,,3.9809999465942383,,,1779973343.9546564,1779973344.846701,1779973347.9356563,ml_jamo,hangul_learning_results\subject_s01\voice_trials\trial_voice_1779973347078.wav,,,0.33007230004295707,1.41,"[{""label"": ""ㅕ"", ""probability"": 0.17884615384615385, ""score"": 0.17884615384615385}, {""label"": ""ㅑ"", ""probability"": 0.1326923076923077, ""score"": 0.1326923076923077}, {""label"": ""ㅛ"", ""probability"": 0.046153846153846156, ""score"": 0.046153846153846156}, {""label"": ""ㅠ"", ""probability"": 0.046153846153846156, ""score"": 0.046153846153846156}, {""label"": ""ㅢ"", ""probability"": 0.009615384615384616, ""score"": 0.009615384615384616}]",2026-05-28 22:02:27,0.9527,150,250
s01,2026-05-28,6,double_vowels,Session 6: Double vowels,91,3,ㅠ,"5/150.5/d,8/i/100.8/150.0/150.5/150.5/d,8/i/100.8/150",voice_ml,5,ㅢ|ㅑ|ㅕ|ㅛ|ㅠ,ㅠ,0,1,1.1440806000027806,0.1909806000027806,,3.8893730640411377,,,1779973348.5556464,1779973349.5169532,1779973352.4450195,ml_jamo,hangul_learning_results\subject_s01\voice_trials\trial_voice_1779973351547.wav,,,0.33066440001130104,1.47,"[{""label"": ""ㅠ"", ""probability"": 0.11153846153846153, ""score"": 0.11153846153846153}, {""label"": ""ㅕ"", ""probability"": 0.04038461538461539, ""score"": 0.04038461538461539}, {""label"": ""ㅛ"", ""probability"": 0.032692307692307694, ""score"": 0.032692307692307694}, {""label"": ""ㅑ"", ""probability"": 0.028846153846153848, ""score"": 0.028846153846153848}, {""label"": ""ㅢ"", ""probability"": 0.015384615384615385, ""score"": 0.015384615384615385}]",2026-05-28 22:02:32,0.9531,150,250
s01,2026-05-28,6,double_vowels,Session 6: Double vowels,92,4,ㅑ,"5/150.5/d,4/i/100.4/150.0/150.5/150.5/d,4/i/100.4/150",voice_ml,5,ㅢ|ㅑ|ㅕ|ㅛ|ㅠ,ㅑ,0,1,1.41295349993743,0.4606534999374301,,4.754190683364868,,,1779973352.9179132,1779973354.5420713,1779973357.672104,ml_jamo,hangul_learning_results\subject_s01\voice_trials\trial_voice_1779973356834.wav,,,0.35418529994785786,1.41,"[{""label"": ""ㅑ"", ""probability"": 0.21346153846153848, ""score"": 0.21346153846153848}, {""label"": ""ㅕ"", ""probability"": 0.0903846153846154, ""score"": 0.0903846153846154}, {""label"": ""ㅛ"", ""probability"": 0.025, ""score"": 0.025}, {""label"": ""ㅠ"", ""probability"": 0.015384615384615385, ""score"": 0.015384615384615385}, {""label"": ""ㅢ"", ""probability"": 0.007692307692307693, ""score"": 0.007692307692307693}]",2026-05-28 22:02:37,0.9522999999999999,150,250
s01,2026-05-28,6,double_vowels,Session 6: Double vowels,93,5,ㅢ,5/350.0/150.5/150,voice_ml,5,ㅢ|ㅑ|ㅕ|ㅛ|ㅠ,ㅢ,0,1,1.9900837999302894,1.3395837999302893,,5.1995849609375,,,1779973358.299625,1779973359.2347589,1779973363.49921,ml_jamo,hangul_learning_results\subject_s01\voice_trials\trial_voice_1779973362042.wav,,,0.35703600000124425,1.38,"[{""label"": ""ㅑ"", ""probability"": 0.04038461538461539, ""score"": 0.04038461538461539}, {""label"": ""ㅠ"", ""probability"": 0.038461538461538464, ""score"": 0.038461538461538464}, {""label"": ""ㅢ"", ""probability"": 0.028846153846153848, ""score"": 0.028846153846153848}, {""label"": ""ㅛ"", ""probability"": 0.019230769230769232, ""score"": 0.019230769230769232}, {""label"": ""ㅕ"", ""probability"": 0.007692307692307693, ""score"": 0.007692307692307693}]",2026-05-28 22:02:43,0.6505,150,250
s01,2026-05-28,6,double_vowels,Session 6: Double vowels,94,6,ㅛ,"5/150.5/d,2/i/100.2/150.0/150.5/150.5/d,2/i/100.2/150",voice_ml,5,ㅢ|ㅑ|ㅕ|ㅛ|ㅠ,ㅛ,0,1,1.4073351999977604,0.4554351999977603,,4.035169363021851,,,1779973363.9527023,1779973364.6053452,1779973367.9878716,ml_jamo,hangul_learning_results\subject_s01\voice_trials\trial_voice_1779973366893.wav,,,0.3367211000295356,1.41,"[{""label"": ""ㅕ"", ""probability"": 0.10961538461538461, ""score"": 0.10961538461538461}, {""label"": ""ㅛ"", ""probability"": 0.08076923076923077, ""score"": 0.08076923076923077}, {""label"": ""ㅠ"", ""probability"": 0.04230769230769231, ""score"": 0.04230769230769231}, {""label"": ""ㅑ"", ""probability"": 0.038461538461538464, ""score"": 0.038461538461538464}, {""label"": ""ㅢ"", ""probability"": 0.0019230769230769232, ""score"": 0.0019230769230769232}]",2026-05-28 22:02:47,0.9519000000000001,150,250
s01,2026-05-28,6,double_vowels,Session 6: Double vowels,95,7,ㅕ,"5/150.5/d,6/i/100.6/150.0/150.5/150.5/d,6/i/100.6/150",voice_ml,5,ㅢ|ㅑ|ㅕ|ㅛ|ㅠ,ㅕ,0,1,1.2725941999815404,0.31989419998154045,,3.6512646675109863,,,1779973368.4478278,1779973369.0881038,1779973372.0990925,ml_jamo,hangul_learning_results\subject_s01\voice_trials\trial_voice_1779973371187.wav,,,0.33076400007121265,1.41,"[{""label"": ""ㅕ"", ""probability"": 0.09230769230769231, ""score"": 0.09230769230769231}, {""label"": ""ㅑ"", ""probability"": 0.06346153846153846, ""score"": 0.06346153846153846}, {""label"": ""ㅠ"", ""probability"": 0.03461538461538462, ""score"": 0.03461538461538462}, {""label"": ""ㅛ"", ""probability"": 0.032692307692307694, ""score"": 0.032692307692307694}, {""label"": ""ㅢ"", ""probability"": 0.013461538461538462, ""score"": 0.013461538461538462}]",2026-05-28 22:02:52,0.9527,150,250
s01,2026-05-28,6,double_vowels,Session 6: Double vowels,96,8,ㅠ,"5/150.5/d,8/i/100.8/150.0/150.5/150.5/d,8/i/100.8/150",voice_ml,5,ㅢ|ㅑ|ㅕ|ㅛ|ㅠ,ㅠ,0,1,1.3384109999751672,0.38531099997516727,,3.978008270263672,,,1779973372.578777,1779973373.24281,1779973376.5567853,ml_jamo,hangul_learning_results\subject_s01\voice_trials\trial_voice_1779973375597.wav,,,0.34519699995871633,1.53,"[{""label"": ""ㅠ"", ""probability"": 0.06538461538461539, ""score"": 0.06538461538461539}, {""label"": ""ㅑ"", ""probability"": 0.026923076923076925, ""score"": 0.026923076923076925}, {""label"": ""ㅛ"", ""probability"": 0.023076923076923078, ""score"": 0.023076923076923078}, {""label"": ""ㅢ"", ""probability"": 0.023076923076923078, ""score"": 0.023076923076923078}, {""label"": ""ㅕ"", ""probability"": 0.019230769230769232, ""score"": 0.019230769230769232}]",2026-05-28 22:02:56,0.9531,150,250
s01,2026-05-28,6,double_vowels,Session 6: Double vowels,97,9,ㅢ,5/350.0/150.5/150,voice_ml,5,ㅢ|ㅑ|ㅕ|ㅛ|ㅠ,ㅢ,0,1,1.328579599969089,0.6780795999690891,,3.747957229614258,,,1779973376.9611278,1779973377.6147811,1779973380.709085,ml_jamo,hangul_learning_results\subject_s01\voice_trials\trial_voice_1779973379757.wav,,,0.372469799942337,1.38,"[{""label"": ""ㅢ"", ""probability"": 0.12307692307692308, ""score"": 0.12307692307692308}, {""label"": ""ㅠ"", ""probability"": 0.019230769230769232, ""score"": 0.019230769230769232}, {""label"": ""ㅑ"", ""probability"": 0.015384615384615385, ""score"": 0.015384615384615385}, {""label"": ""ㅛ"", ""probability"": 0.011538461538461539, ""score"": 0.011538461538461539}, {""label"": ""ㅕ"", ""probability"": 0.0057692307692307696, ""score"": 0.0057692307692307696}]",2026-05-28 22:03:00,0.6505,150,250
s01,2026-05-28,6,double_vowels,Session 6: Double vowels,98,10,ㅑ,"5/150.5/d,4/i/100.4/150.0/150.5/150.5/d,4/i/100.4/150",voice_ml,5,ㅢ|ㅑ|ㅕ|ㅛ|ㅠ,ㅑ,0,1,1.5015328999143094,0.5492328999143095,,4.0870139598846436,,,1779973381.1508715,1779973381.8046765,1779973385.2378855,ml_jamo,hangul_learning_results\subject_s01\voice_trials\trial_voice_1779973384162.wav,,,0.3326039999956265,1.38,"[{""label"": ""ㅑ"", ""probability"": 0.11538461538461539, ""score"": 0.11538461538461539}, {""label"": ""ㅕ"", ""probability"": 0.06730769230769232, ""score"": 0.06730769230769232}, {""label"": ""ㅛ"", ""probability"": 0.015384615384615385, ""score"": 0.015384615384615385}, {""label"": ""ㅠ"", ""probability"": 0.011538461538461539, ""score"": 0.011538461538461539}, {""label"": ""ㅢ"", ""probability"": 0.0019230769230769232, ""score"": 0.0019230769230769232}]",2026-05-28 22:03:05,0.9522999999999999,150,250
s01,2026-05-28,7,complex_vowels,Session 7: Complex vowels,99,1,ㅖ,"5/150.5/d,6/i/100.6/150.0/150.5/150.5/d,6/i/100.6/150.0/150.5/150",voice_ml,8,ㅐ|ㅔ|ㅒ|ㅖ|ㅘ|ㅚ|ㅝ|ㅟ,ㅖ,0,1,3.4016979000298306,2.1484979000298305,,7.863078355789185,,,1779973386.55453,1779973389.151644,1779973394.4176083,ml_jamo,hangul_learning_results\subject_s01\voice_trials\trial_voice_1779973393466.wav,,,0.3865999000845477,1.44,"[{""label"": ""ㅖ"", ""probability"": 0.11153846153846154, ""score"": 0.11153846153846154}, {""label"": ""ㅒ"", ""probability"": 0.06923076923076923, ""score"": 0.06923076923076923}, {""label"": ""ㅚ"", ""probability"": 0.04423076923076923, ""score"": 0.04423076923076923}, {""label"": ""ㅟ"", ""probability"": 0.03653846153846154, ""score"": 0.03653846153846154}, {""label"": ""ㅐ"", ""probability"": 0.028846153846153848, ""score"": 0.028846153846153848}]",2026-05-28 22:03:14,1.2532,150,250
s01,2026-05-28,7,complex_vowels,Session 7: Complex vowels,100,2,ㅝ,"5/150.5/d,8/i/100.8/150.0/150.5/150.5/d,6/i/100.6/150",voice_ml,8,ㅐ|ㅔ|ㅒ|ㅖ|ㅘ|ㅚ|ㅝ|ㅟ,ㅝ,0,1,4.811304000089876,3.8584040000898763,,7.656968832015991,,,1779973395.019609,1779973395.6787348,1779973402.6765778,ml_jamo,hangul_learning_results\subject_s01\voice_trials\trial_voice_1779973401322.wav,,,0.3264719001017511,1.41,"[{""label"": ""ㅘ"", ""probability"": 0.1807692307692308, ""score"": 0.1807692307692308}, {""label"": ""ㅝ"", ""probability"": 0.175, ""score"": 0.175}, {""label"": ""ㅚ"", ""probability"": 0.023076923076923078, ""score"": 0.023076923076923078}, {""label"": ""ㅟ"", ""probability"": 0.019230769230769232, ""score"": 0.019230769230769232}, {""label"": ""ㅖ"", ""probability"": 0.013461538461538462, ""score"": 0.013461538461538462}]",2026-05-28 22:03:22,0.9529,150,250
s01,2026-05-28,7,complex_vowels,Session 7: Complex vowels,101,3,ㅐ,"5/150.5/d,4/i/100.4/150.0/150.5/150",voice_ml,8,ㅐ|ㅔ|ㅒ|ㅖ|ㅘ|ㅚ|ㅝ|ㅟ,ㅐ,0,1,5.0577602999983355,4.356360299998336,,7.72124981880188,,,1779973403.2696,1779973403.904853,1779973410.9908497,ml_jamo,hangul_learning_results\subject_s01\voice_trials\trial_voice_1779973409923.wav,,,0.3469158000079915,1.5,"[{""label"": ""ㅔ"", ""probability"": 0.11153846153846154, ""score"": 0.11153846153846154}, {""label"": ""ㅐ"", ""probability"": 0.057692307692307696, ""score"": 0.057692307692307696}, {""label"": ""ㅟ"", ""probability"": 0.032692307692307694, ""score"": 0.032692307692307694}, {""label"": ""ㅚ"", ""probability"": 0.023076923076923078, ""score"": 0.023076923076923078}, {""label"": ""ㅖ"", ""probability"": 0.021153846153846155, ""score"": 0.021153846153846155}]",2026-05-28 22:03:30,0.7014,150,250
s01,2026-05-28,7,complex_vowels,Session 7: Complex vowels,102,4,ㅘ,"5/150.5/d,2/i/100.2/150.0/150.5/150.5/d,4/i/100.4/150",voice_ml,8,ㅐ|ㅔ|ㅒ|ㅖ|ㅘ|ㅚ|ㅝ|ㅟ,ㅘ,0,1,2.4306960999965668,1.4785960999965666,,5.007344722747803,,,1779973411.9256825,1779973412.669788,1779973416.9330273,ml_jamo,hangul_learning_results\subject_s01\voice_trials\trial_voice_1779973416043.wav,,,0.34419019997585565,1.47,"[{""label"": ""ㅘ"", ""probability"": 0.26346153846153847, ""score"": 0.26346153846153847}, {""label"": ""ㅝ"", ""probability"": 0.11153846153846154, ""score"": 0.11153846153846154}, {""label"": ""ㅚ"", ""probability"": 0.013461538461538462, ""score"": 0.013461538461538462}, {""label"": ""ㅟ"", ""probability"": 0.011538461538461539, ""score"": 0.011538461538461539}, {""label"": ""ㅔ"", ""probability"": 0.009615384615384616, ""score"": 0.009615384615384616}]",2026-05-28 22:03:36,0.9521000000000001,150,250
s01,2026-05-28,7,complex_vowels,Session 7: Complex vowels,103,5,ㅒ,"5/150.5/d,4/i/100.4/150.0/150.5/150.5/d,4/i/100.4/150.0/150.5/150",voice_ml,8,ㅐ|ㅔ|ㅒ|ㅖ|ㅘ|ㅚ|ㅝ|ㅟ,ㅒ,0,1,2.6267859000945464,1.3739859000945465,,5.7820727825164795,,,1779973417.3918,1779973418.2365367,1779973423.1738727,ml_jamo,hangul_learning_results\subject_s01\voice_trials\trial_voice_1779973421777.wav,,,0.3325950000435114,1.44,"[{""label"": ""ㅖ"", ""probability"": 0.09807692307692309, ""score"": 0.09807692307692309}, {""label"": ""ㅟ"", ""probability"": 0.05384615384615385, ""score"": 0.05384615384615385}, {""label"": ""ㅒ"", ""probability"": 0.04807692307692308, ""score"": 0.04807692307692308}, {""label"": ""ㅚ"", ""probability"": 0.03653846153846154, ""score"": 0.03653846153846154}, {""label"": ""ㅔ"", ""probability"": 0.03076923076923077, ""score"": 0.03076923076923077}]",2026-05-28 22:03:43,1.2528,150,250
s01,2026-05-28,7,complex_vowels,Session 7: Complex vowels,104,6,ㅚ,"5/150.5/d,2/i/100.2/150.0/150.5/150",voice_ml,8,ㅐ|ㅔ|ㅒ|ㅖ|ㅘ|ㅚ|ㅝ|ㅟ,ㅚ,0,1,3.760424099978991,3.059224099978991,,6.282217979431152,,,1779973423.5931659,1779973424.2178552,1779973429.8753839,ml_jamo,hangul_learning_results\subject_s01\voice_trials\trial_voice_1779973428883.wav,,,0.35523270000703633,1.44,"[{""label"": ""ㅚ"", ""probability"": 0.11346153846153847, ""score"": 0.11346153846153847}, {""label"": ""ㅖ"", ""probability"": 0.05961538461538462, ""score"": 0.05961538461538462}, {""label"": ""ㅟ"", ""probability"": 0.04038461538461539, ""score"": 0.04038461538461539}, {""label"": ""ㅘ"", ""probability"": 0.019230769230769232, ""score"": 0.019230769230769232}, {""label"": ""ㅔ"", ""probability"": 0.013461538461538462, ""score"": 0.013461538461538462}]",2026-05-28 22:03:49,0.7012,150,250
s01,2026-05-28,7,complex_vowels,Session 7: Complex vowels,105,7,ㅟ,"5/150.5/d,8/i/100.8/150.0/150.5/150",voice_ml,8,ㅐ|ㅔ|ㅒ|ㅖ|ㅘ|ㅚ|ㅝ|ㅟ,ㅟ,0,1,2.1940654000500217,1.4922654000500217,,4.734438180923462,,,1779973430.4305854,1779973431.056654,1779973435.1650236,ml_jamo,hangul_learning_results\subject_s01\voice_trials\trial_voice_1779973434136.wav,,,0.347019899985753,1.47,"[{""label"": ""ㅟ"", ""probability"": 0.07115384615384615, ""score"": 0.07115384615384615}, {""label"": ""ㅘ"", ""probability"": 0.04423076923076923, ""score"": 0.04423076923076923}, {""label"": ""ㅝ"", ""probability"": 0.03076923076923077, ""score"": 0.03076923076923077}, {""label"": ""ㅖ"", ""probability"": 0.025, ""score"": 0.025}, {""label"": ""ㅚ"", ""probability"": 0.025, ""score"": 0.025}]",2026-05-28 22:03:55,0.7018,150,250
s01,2026-05-28,7,complex_vowels,Session 7: Complex vowels,106,8,ㅔ,"5/150.5/d,6/i/100.6/150.0/150.5/150",voice_ml,8,ㅐ|ㅔ|ㅒ|ㅖ|ㅘ|ㅚ|ㅝ|ㅟ,ㅔ,0,1,2.347179799922742,1.645579799922742,,4.725341320037842,,,1779973435.749749,1779973436.397433,1779973440.4750903,ml_jamo,hangul_learning_results\subject_s01\voice_trials\trial_voice_1779973439609.wav,,,0.340251800022088,1.44,"[{""label"": ""ㅔ"", ""probability"": 0.14615384615384616, ""score"": 0.14615384615384616}, {""label"": ""ㅐ"", ""probability"": 0.06538461538461539, ""score"": 0.06538461538461539}, {""label"": ""ㅖ"", ""probability"": 0.03076923076923077, ""score"": 0.03076923076923077}, {""label"": ""ㅒ"", ""probability"": 0.026923076923076925, ""score"": 0.026923076923076925}, {""label"": ""ㅟ"", ""probability"": 0.023076923076923078, ""score"": 0.023076923076923078}]",2026-05-28 22:04:00,0.7016,150,250
s01,2026-05-28,7,complex_vowels,Session 7: Complex vowels,107,9,ㅚ,"5/150.5/d,2/i/100.2/150.0/150.5/150",voice_ml,8,ㅐ|ㅔ|ㅒ|ㅖ|ㅘ|ㅚ|ㅝ|ㅟ,ㅚ,0,1,2.003777000005357,1.302577000005357,,4.512479782104492,,,1779973441.0358646,1779973441.6843534,1779973445.5483444,ml_jamo,hangul_learning_results\subject_s01\voice_trials\trial_voice_1779973444653.wav,,,0.33232720009982586,1.5,"[{""label"": ""ㅚ"", ""probability"": 0.10576923076923077, ""score"": 0.10576923076923077}, {""label"": ""ㅖ"", ""probability"": 0.057692307692307696, ""score"": 0.057692307692307696}, {""label"": ""ㅒ"", ""probability"": 0.015384615384615385, ""score"": 0.015384615384615385}, {""label"": ""ㅔ"", ""probability"": 0.015384615384615385, ""score"": 0.015384615384615385}, {""label"": ""ㅟ"", ""probability"": 0.015384615384615385, ""score"": 0.015384615384615385}]",2026-05-28 22:04:05,0.7012,150,250
s01,2026-05-28,7,complex_vowels,Session 7: Complex vowels,108,10,ㅒ,"5/150.5/d,4/i/100.4/150.0/150.5/150.5/d,4/i/100.4/150.0/150.5/150",voice_ml,8,ㅐ|ㅔ|ㅒ|ㅖ|ㅘ|ㅚ|ㅝ|ㅟ,ㅒ,0,1,3.7024704000214115,2.449670400021412,,6.339874505996704,,,1779973446.0422661,1779973446.6834803,1779973452.3821406,ml_jamo,hangul_learning_results\subject_s01\voice_trials\trial_voice_1779973451351.wav,,,0.33336759998928756,1.5,"[{""label"": ""ㅖ"", ""probability"": 0.09423076923076923, ""score"": 0.09423076923076923}, {""label"": ""ㅒ"", ""probability"": 0.04423076923076923, ""score"": 0.04423076923076923}, {""label"": ""ㅔ"", ""probability"": 0.038461538461538464, ""score"": 0.038461538461538464}, {""label"": ""ㅚ"", ""probability"": 0.03461538461538462, ""score"": 0.03461538461538462}, {""label"": ""ㅟ"", ""probability"": 0.03076923076923077, ""score"": 0.03076923076923077}]",2026-05-28 22:04:12,1.2528,150,250
s01,2026-05-28,7,complex_vowels,Session 7: Complex vowels,109,11,ㅝ,"5/150.5/d,8/i/100.8/150.0/150.5/150.5/d,6/i/100.6/150",voice_ml,8,ㅐ|ㅔ|ㅒ|ㅖ|ㅘ|ㅚ|ㅝ|ㅟ,ㅝ,0,1,2.945420500007458,1.992520500007458,,5.44844126701355,,,1779973452.8530865,1779973453.5305035,1779973458.3015277,ml_jamo,hangul_learning_results\subject_s01\voice_trials\trial_voice_1779973457338.wav,,,0.3326909999595955,1.44,"[{""label"": ""ㅘ"", ""probability"": 0.24230769230769234, ""score"": 0.24230769230769234}, {""label"": ""ㅝ"", ""probability"": 0.1769230769230769, ""score"": 0.1769230769230769}, {""label"": ""ㅚ"", ""probability"": 0.03461538461538462, ""score"": 0.03461538461538462}, {""label"": ""ㅖ"", ""probability"": 0.025, ""score"": 0.025}, {""label"": ""ㅟ"", ""probability"": 0.011538461538461539, ""score"": 0.011538461538461539}]",2026-05-28 22:04:18,0.9529,150,250
s01,2026-05-28,7,complex_vowels,Session 7: Complex vowels,110,12,ㅐ,"5/150.5/d,4/i/100.4/150.0/150.5/150",voice_ml,8,ㅐ|ㅔ|ㅒ|ㅖ|ㅘ|ㅚ|ㅝ|ㅟ,ㅐ,0,1,2.148198299924843,1.446798299924843,,5.491390228271484,,,1779973458.993647,1779973459.652551,1779973464.4850373,ml_jamo,hangul_learning_results\subject_s01\voice_trials\trial_voice_1779973462644.wav,,,0.36627759994007647,1.38,"[{""label"": ""ㅔ"", ""probability"": 0.06923076923076923, ""score"": 0.06923076923076923}, {""label"": ""ㅖ"", ""probability"": 0.051923076923076926, ""score"": 0.051923076923076926}, {""label"": ""ㅚ"", ""probability"": 0.04038461538461539, ""score"": 0.04038461538461539}, {""label"": ""ㅐ"", ""probability"": 0.028846153846153848, ""score"": 0.028846153846153848}, {""label"": ""ㅒ"", ""probability"": 0.028846153846153848, ""score"": 0.028846153846153848}]",2026-05-28 22:04:24,0.7014,150,250
s01,2026-05-28,7,complex_vowels,Session 7: Complex vowels,111,13,ㅖ,"5/150.5/d,6/i/100.6/150.0/150.5/150.5/d,6/i/100.6/150.0/150.5/150",voice_ml,8,ㅐ|ㅔ|ㅒ|ㅖ|ㅘ|ㅚ|ㅝ|ㅟ,ㅖ,0,1,2.2934265000512823,1.0402265000512823,,5.111796617507935,,,1779973465.214748,1779973465.8578303,1779973470.3265445,ml_jamo,hangul_learning_results\subject_s01\voice_trials\trial_voice_1779973469080.wav,,,0.3410213999450207,1.44,"[{""label"": ""ㅟ"", ""probability"": 0.057692307692307696, ""score"": 0.057692307692307696}, {""label"": ""ㅖ"", ""probability"": 0.05576923076923077, ""score"": 0.05576923076923077}, {""label"": ""ㅒ"", ""probability"": 0.038461538461538464, ""score"": 0.038461538461538464}, {""label"": ""ㅚ"", ""probability"": 0.03461538461538462, ""score"": 0.03461538461538462}, {""label"": ""ㅐ"", ""probability"": 0.015384615384615385, ""score"": 0.015384615384615385}]",2026-05-28 22:04:30,1.2532,150,250
s01,2026-05-28,7,complex_vowels,Session 7: Complex vowels,112,14,ㅘ,"5/150.5/d,2/i/100.2/150.0/150.5/150.5/d,4/i/100.4/150",voice_ml,8,ㅐ|ㅔ|ㅒ|ㅖ|ㅘ|ㅚ|ㅝ|ㅟ,ㅘ,0,1,2.020017100032419,1.0679171000324188,,5.035976409912109,,,1779973470.9257905,1779973471.7175782,1779973475.961767,ml_jamo,hangul_learning_results\subject_s01\voice_trials\trial_voice_1779973474637.wav,,,0.3664688999997452,1.47,"[{""label"": ""ㅘ"", ""probability"": 0.2865384615384615, ""score"": 0.2865384615384615}, {""label"": ""ㅝ"", ""probability"": 0.11730769230769231, ""score"": 0.11730769230769231}, {""label"": ""ㅔ"", ""probability"": 0.013461538461538462, ""score"": 0.013461538461538462}, {""label"": ""ㅚ"", ""probability"": 0.013461538461538462, ""score"": 0.013461538461538462}, {""label"": ""ㅖ"", ""probability"": 0.009615384615384616, ""score"": 0.009615384615384616}]",2026-05-28 22:04:35,0.9521000000000001,150,250
s01,2026-05-28,7,complex_vowels,Session 7: Complex vowels,113,15,ㅔ,"5/150.5/d,6/i/100.6/150.0/150.5/150",voice_ml,8,ㅐ|ㅔ|ㅒ|ㅖ|ㅘ|ㅚ|ㅝ|ㅟ,ㅔ,0,1,3.7526501999236643,3.0510501999236643,,6.310938835144043,,,1779973476.7497935,1779973477.4064064,1779973483.0607324,ml_jamo,hangul_learning_results\subject_s01\voice_trials\trial_voice_1779973482082.wav,,,0.3296431000344455,1.5,"[{""label"": ""ㅔ"", ""probability"": 0.20961538461538462, ""score"": 0.20961538461538462}, {""label"": ""ㅐ"", ""probability"": 0.08846153846153847, ""score"": 0.08846153846153847}, {""label"": ""ㅖ"", ""probability"": 0.026923076923076925, ""score"": 0.026923076923076925}, {""label"": ""ㅒ"", ""probability"": 0.023076923076923078, ""score"": 0.023076923076923078}, {""label"": ""ㅚ"", ""probability"": 0.023076923076923078, ""score"": 0.023076923076923078}]",2026-05-28 22:04:43,0.7016,150,250
s01,2026-05-28,7,complex_vowels,Session 7: Complex vowels,114,16,ㅟ,"5/150.5/d,8/i/100.8/150.0/150.5/150",voice_ml,8,ㅐ|ㅔ|ㅒ|ㅖ|ㅘ|ㅚ|ㅝ|ㅟ,ㅟ,0,1,1.7115569000598043,1.0097569000598043,,5.134358882904053,,,1779973483.8521786,1779973484.5126026,1779973488.9865375,ml_jamo,hangul_learning_results\subject_s01\voice_trials\trial_voice_1779973487049.wav,,,0.36818590003531426,1.35,"[{""label"": ""ㅟ"", ""probability"": 0.16153846153846152, ""score"": 0.16153846153846152}, {""label"": ""ㅚ"", ""probability"": 0.025, ""score"": 0.025}, {""label"": ""ㅖ"", ""probability"": 0.023076923076923078, ""score"": 0.023076923076923078}, {""label"": ""ㅔ"", ""probability"": 0.019230769230769232, ""score"": 0.019230769230769232}, {""label"": ""ㅘ"", ""probability"": 0.019230769230769232, ""score"": 0.019230769230769232}]",2026-05-28 22:04:48,0.7018,150,250
s01,2026-05-28,8,all_vowels,Session 8: All vowels,115,1,ㅔ,"5/150.5/d,6/i/100.6/150.0/150.5/150",voice_ml,19,ㅣ|ㅡ|ㅏ|ㅓ|ㅗ|ㅜ|ㅢ|ㅑ|ㅕ|ㅛ|ㅠ|ㅐ|ㅔ|ㅒ|ㅖ|ㅘ|ㅚ|ㅝ|ㅟ,ㅔ,0,1,2.150130199966952,1.4485301999669522,,56.850730657577515,,,1779973495.9361901,1779973548.1385202,1779973552.7869208,ml_jamo,hangul_learning_results\subject_s01\voice_trials\trial_voice_1779973551415.wav,,,0.34126580005977303,1.71,"[{""label"": ""ㅔ"", ""probability"": 0.11153846153846154, ""score"": 0.11153846153846154}, {""label"": ""ㅐ"", ""probability"": 0.04423076923076923, ""score"": 0.04423076923076923}, {""label"": ""ㅢ"", ""probability"": 0.04038461538461539, ""score"": 0.04038461538461539}, {""label"": ""ㅜ"", ""probability"": 0.038461538461538464, ""score"": 0.038461538461538464}, {""label"": ""ㅚ"", ""probability"": 0.03461538461538462, ""score"": 0.03461538461538462}]",2026-05-28 22:05:52,0.7016,150,250
s01,2026-05-28,8,all_vowels,Session 8: All vowels,116,2,ㅏ,"5/150.5/d,4/i/100.4/150",voice_ml,19,ㅣ|ㅡ|ㅏ|ㅓ|ㅗ|ㅜ|ㅢ|ㅑ|ㅕ|ㅛ|ㅠ|ㅐ|ㅔ|ㅒ|ㅖ|ㅘ|ㅚ|ㅝ|ㅟ,ㅏ,0,1,1.9841219999361783,1.5832219999361783,,4.628459453582764,,,1779973553.9365654,1779973554.799535,1779973558.5650249,ml_jamo,hangul_learning_results\subject_s01\voice_trials\trial_voice_1779973557595.wav,,,0.33775629999581724,1.38,"[{""label"": ""ㅏ"", ""probability"": 0.28076923076923077, ""score"": 0.28076923076923077}, {""label"": ""ㅓ"", ""probability"": 0.11346153846153847, ""score"": 0.11346153846153847}, {""label"": ""ㅘ"", ""probability"": 0.09423076923076923, ""score"": 0.09423076923076923}, {""label"": ""ㅑ"", ""probability"": 0.07307692307692308, ""score"": 0.07307692307692308}, {""label"": ""ㅕ"", ""probability"": 0.05, ""score"": 0.05}]",2026-05-28 22:05:58,0.4009,150,250
s01,2026-05-28,8,all_vowels,Session 8: All vowels,117,3,ㅢ,5/350.0/150.5/150,voice_ml,19,ㅣ|ㅡ|ㅏ|ㅓ|ㅗ|ㅜ|ㅢ|ㅑ|ㅕ|ㅛ|ㅠ|ㅐ|ㅔ|ㅒ|ㅖ|ㅘ|ㅚ|ㅝ|ㅟ,ㅢ,0,1,1.3237240000162274,0.6732240000162274,,3.7727465629577637,,,1779973559.219361,1779973559.9530296,1779973562.9921076,ml_jamo,hangul_learning_results\subject_s01\voice_trials\trial_voice_1779973562042.wav,,,0.33912669995334,1.35,"[{""label"": ""ㅢ"", ""probability"": 0.18653846153846154, ""score"": 0.18653846153846154}, {""label"": ""ㅔ"", ""probability"": 0.08653846153846154, ""score"": 0.08653846153846154}, {""label"": ""ㅡ"", ""probability"": 0.07307692307692308, ""score"": 0.07307692307692308}, {""label"": ""ㅜ"", ""probability"": 0.06153846153846154, ""score"": 0.06153846153846154}, {""label"": ""ㅣ"", ""probability"": 0.032692307692307694, ""score"": 0.032692307692307694}]",2026-05-28 22:06:02,0.6505,150,250
s01,2026-05-28,8,all_vowels,Session 8: All vowels,118,4,ㅗ,"5/150.5/d,2/i/100.2/150",voice_ml,19,ㅣ|ㅡ|ㅏ|ㅓ|ㅗ|ㅜ|ㅢ|ㅑ|ㅕ|ㅛ|ㅠ|ㅐ|ㅔ|ㅒ|ㅖ|ㅘ|ㅚ|ㅝ|ㅟ,ㅗ,0,1,1.1139605999924242,0.7132605999924242,,3.6951754093170166,,,1779973563.4583318,1779973564.1359441,1779973567.1535072,ml_jamo,hangul_learning_results\subject_s01\voice_trials\trial_voice_1779973566045.wav,,,0.34288599994033575,1.38,"[{""label"": ""ㅗ"", ""probability"": 0.14423076923076925, ""score"": 0.14423076923076925}, {""label"": ""ㅝ"", ""probability"": 0.10576923076923077, ""score"": 0.10576923076923077}, {""label"": ""ㅜ"", ""probability"": 0.07307692307692308, ""score"": 0.07307692307692308}, {""label"": ""ㅛ"", ""probability"": 0.057692307692307696, ""score"": 0.057692307692307696}, {""label"": ""ㅕ"", ""probability"": 0.05384615384615385, ""score"": 0.05384615384615385}]",2026-05-28 22:06:07,0.4007,150,250
s01,2026-05-28,8,all_vowels,Session 8: All vowels,119,5,ㅝ,"5/150.5/d,8/i/100.8/150.0/150.5/150.5/d,6/i/100.6/150",voice_ml,19,ㅣ|ㅡ|ㅏ|ㅓ|ㅗ|ㅜ|ㅢ|ㅑ|ㅕ|ㅛ|ㅠ|ㅐ|ㅔ|ㅒ|ㅖ|ㅘ|ㅚ|ㅝ|ㅟ,ㅝ,0,1,3.12256879999768,2.16966879999768,,6.2247772216796875,,,1779973567.5804994,1779973568.219314,1779973573.8052766,ml_jamo,hangul_learning_results\subject_s01\voice_trials\trial_voice_1779973572648.wav,,,0.3357287999242544,1.89,"[{""label"": ""ㅝ"", ""probability"": 0.175, ""score"": 0.175}, {""label"": ""ㅘ"", ""probability"": 0.1076923076923077, ""score"": 0.1076923076923077}, {""label"": ""ㅕ"", ""probability"": 0.08846153846153847, ""score"": 0.08846153846153847}, {""label"": ""ㅑ"", ""probability"": 0.06346153846153846, ""score"": 0.06346153846153846}, {""label"": ""ㅗ"", ""probability"": 0.04230769230769231, ""score"": 0.04230769230769231}]",2026-05-28 22:06:13,0.9529,150,250
