subject,day,session_idx,session_name,session_title,trial_index_global,trial_index_session,target_label,target_command,response_mode,option_count,options,selected_label,manual_response,correct,rt_sec,rt_from_stimulus_sec,voice_onset_rt_sec,trial_elapsed_sec,session_elapsed_sec,day_elapsed_sec,trial_start_time,stimulus_sent_time,answer_time,voice_engine,voice_wav_path,voice_stt_raw,voice_stt_norm,voice_process_time_sec,voice_recorded_duration_sec,top_candidates,timestamp,stimulus_duration_sec,within_unit_interval_ms,cv_interval_ms
s01,2026-06-04,1,basic_consonants,Session 1: Basic consonants,1,1,ㅂ,6/150,voice_ml,7,ㄱ|ㄴ|ㄷ|ㅂ|ㅅ|ㅇ|ㅈ,ㅂ,0,1,1.469796400051564,1.319796400051564,,11.130011796951294,,,1780534278.6471174,1780534282.4710915,1780534289.7771292,ml_jamo,hangul_learning_results\subject_s01\voice_trials\trial_voice_1780534287020.wav,,,0.47197010018862784,3.09,"[{""label"": ""ㅇ"", ""probability"": 0.08076923076923077, ""score"": 0.08076923076923077}, {""label"": ""ㄷ"", ""probability"": 0.03653846153846154, ""score"": 0.03653846153846154}, {""label"": ""ㄴ"", ""probability"": 0.03461538461538462, ""score"": 0.03461538461538462}, {""label"": ""ㅂ"", ""probability"": 0.03076923076923077, ""score"": 0.03076923076923077}, {""label"": ""ㄱ"", ""probability"": 0.023076923076923078, ""score"": 0.023076923076923078}]",2026-06-04 09:51:29,0.15,150,250
s01,2026-06-04,1,basic_consonants,Session 1: Basic consonants,2,2,ㄷ,1/150,voice_ml,7,ㄱ|ㄴ|ㄷ|ㅂ|ㅅ|ㅇ|ㅈ,ㄷ,0,1,1.0291662998497486,0.8791662998497486,,3.492872953414917,,,1780534291.1581812,1780534291.8260791,1780534294.6510541,ml_jamo,hangul_learning_results\subject_s01\voice_trials\trial_voice_1780534293573.wav,,,0.35029130009934306,1.26,"[{""label"": ""ㄷ"", ""probability"": 0.06730769230769232, ""score"": 0.06730769230769232}, {""label"": ""ㄴ"", ""probability"": 0.05576923076923077, ""score"": 0.05576923076923077}, {""label"": ""ㅇ"", ""probability"": 0.046153846153846156, ""score"": 0.046153846153846156}, {""label"": ""ㅂ"", ""probability"": 0.038461538461538464, ""score"": 0.038461538461538464}, {""label"": ""ㄱ"", ""probability"": 0.026923076923076925, ""score"": 0.026923076923076925}]",2026-06-04 09:51:34,0.15,150,250
s01,2026-06-04,1,basic_consonants,Session 1: Basic consonants,3,3,ㅇ,9/150,voice_ml,7,ㄱ|ㄴ|ㄷ|ㅂ|ㅅ|ㅇ|ㅈ,ㅇ,0,1,0.799551900010556,0.649551900010556,,3.1144449710845947,,,1780534295.1774738,1780534295.814412,1780534298.2919188,ml_jamo,hangul_learning_results\subject_s01\voice_trials\trial_voice_1780534297419.wav,,,0.3575540999881923,1.38,"[{""label"": ""ㅇ"", ""probability"": 0.1807692307692308, ""score"": 0.1807692307692308}, {""label"": ""ㅂ"", ""probability"": 0.06153846153846154, ""score"": 0.06153846153846154}, {""label"": ""ㄴ"", ""probability"": 0.019230769230769232, ""score"": 0.019230769230769232}, {""label"": ""ㄱ"", ""probability"": 0.015384615384615385, ""score"": 0.015384615384615385}, {""label"": ""ㄷ"", ""probability"": 0.013461538461538462, ""score"": 0.013461538461538462}]",2026-06-04 09:51:38,0.15,150,250
s01,2026-06-04,1,basic_consonants,Session 1: Basic consonants,4,4,ㅈ,7/150,voice_ml,7,ㄱ|ㄴ|ㄷ|ㅂ|ㅅ|ㅇ|ㅈ,ㅈ,0,1,1.2643534000962973,1.1143534000962974,,3.4778666496276855,,,1780534298.7362554,1780534299.3704052,1780534302.214122,ml_jamo,hangul_learning_results\subject_s01\voice_trials\trial_voice_1780534301371.wav,,,0.3592858000192791,1.32,"[{""label"": ""ㅈ"", ""probability"": 0.17115384615384616, ""score"": 0.17115384615384616}, {""label"": ""ㅅ"", ""probability"": 0.08076923076923077, ""score"": 0.08076923076923077}, {""label"": ""ㄱ"", ""probability"": 0.05576923076923077, ""score"": 0.05576923076923077}, {""label"": ""ㅇ"", ""probability"": 0.019230769230769232, ""score"": 0.019230769230769232}, {""label"": ""ㄴ"", ""probability"": 0.01730769230769231, ""score"": 0.01730769230769231}]",2026-06-04 09:51:42,0.15,150,250
s01,2026-06-04,1,basic_consonants,Session 1: Basic consonants,5,5,ㄱ,3/150,voice_ml,7,ㄱ|ㄴ|ㄷ|ㅂ|ㅅ|ㅇ|ㅈ,ㄱ,0,1,0.693900499958545,0.543900499958545,,2.802835702896118,,,1780534302.6067712,1780534303.269601,1780534305.409607,ml_jamo,hangul_learning_results\subject_s01\voice_trials\trial_voice_1780534304609.wav,,,0.3678233998361975,1.23,"[{""label"": ""ㄱ"", ""probability"": 0.17307692307692307, ""score"": 0.17307692307692307}, {""label"": ""ㄷ"", ""probability"": 0.05, ""score"": 0.05}, {""label"": ""ㅇ"", ""probability"": 0.032692307692307694, ""score"": 0.032692307692307694}, {""label"": ""ㄴ"", ""probability"": 0.026923076923076925, ""score"": 0.026923076923076925}, {""label"": ""ㅂ"", ""probability"": 0.026923076923076925, ""score"": 0.026923076923076925}]",2026-06-04 09:51:45,0.15,150,250
s01,2026-06-04,1,basic_consonants,Session 1: Basic consonants,6,6,ㄴ,2/150,voice_ml,7,ㄱ|ㄴ|ㄷ|ㅂ|ㅅ|ㅇ|ㅈ,ㄴ,0,1,0.6213970999233425,0.47139709992334244,,2.943127393722534,,,1780534305.8052597,1780534306.455986,1780534308.748387,ml_jamo,hangul_learning_results\subject_s01\voice_trials\trial_voice_1780534307872.wav,,,0.36363499984145164,1.35,"[{""label"": ""ㄴ"", ""probability"": 0.08846153846153847, ""score"": 0.08846153846153847}, {""label"": ""ㅇ"", ""probability"": 0.07115384615384615, ""score"": 0.07115384615384615}, {""label"": ""ㅂ"", ""probability"": 0.013461538461538462, ""score"": 0.013461538461538462}, {""label"": ""ㄷ"", ""probability"": 0.011538461538461539, ""score"": 0.011538461538461539}, {""label"": ""ㄱ"", ""probability"": 0.009615384615384616, ""score"": 0.009615384615384616}]",2026-06-04 09:51:48,0.15,150,250
s01,2026-06-04,1,basic_consonants,Session 1: Basic consonants,7,7,ㅅ,4/150,voice_ml,7,ㄱ|ㄴ|ㄷ|ㅂ|ㅅ|ㅇ|ㅈ,ㅅ,0,1,1.016426800051704,0.866426800051704,,3.13077449798584,,,1780534309.096434,1780534309.7344708,1780534312.2272086,ml_jamo,hangul_learning_results\subject_s01\voice_trials\trial_voice_1780534311431.wav,,,0.358299900079146,1.26,"[{""label"": ""ㅅ"", ""probability"": 0.09615384615384616, ""score"": 0.09615384615384616}, {""label"": ""ㅈ"", ""probability"": 0.06923076923076923, ""score"": 0.06923076923076923}, {""label"": ""ㄱ"", ""probability"": 0.04807692307692308, ""score"": 0.04807692307692308}, {""label"": ""ㄴ"", ""probability"": 0.007692307692307693, ""score"": 0.007692307692307693}, {""label"": ""ㅂ"", ""probability"": 0.007692307692307693, ""score"": 0.007692307692307693}]",2026-06-04 09:51:52,0.15,150,250
s01,2026-06-04,1,basic_consonants,Session 1: Basic consonants,8,8,ㅅ,4/150,voice_ml,7,ㄱ|ㄴ|ㄷ|ㅂ|ㅅ|ㅇ|ㅈ,ㅅ,0,1,0.7533191000111401,0.6033191000111401,,3.0982003211975098,,,1780534312.612594,1780534313.2312024,1780534315.7107942,ml_jamo,hangul_learning_results\subject_s01\voice_trials\trial_voice_1780534314659.wav,,,0.38711980008520186,1.26,"[{""label"": ""ㄱ"", ""probability"": 0.0826923076923077, ""score"": 0.0826923076923077}, {""label"": ""ㅅ"", ""probability"": 0.07692307692307693, ""score"": 0.07692307692307693}, {""label"": ""ㄴ"", ""probability"": 0.03461538461538462, ""score"": 0.03461538461538462}, {""label"": ""ㄷ"", ""probability"": 0.026923076923076925, ""score"": 0.026923076923076925}, {""label"": ""ㅈ"", ""probability"": 0.026923076923076925, ""score"": 0.026923076923076925}]",2026-06-04 09:51:55,0.15,150,250
s01,2026-06-04,1,basic_consonants,Session 1: Basic consonants,9,9,ㅇ,9/150,voice_ml,7,ㄱ|ㄴ|ㄷ|ㅂ|ㅅ|ㅇ|ㅈ,ㅇ,0,1,0.7848251999821514,0.6348251999821514,,3.015641689300537,,,1780534316.0595927,1780534316.7266939,1780534319.0752344,ml_jamo,hangul_learning_results\subject_s01\voice_trials\trial_voice_1780534318277.wav,,,0.3549897000193596,1.35,"[{""label"": ""ㅇ"", ""probability"": 0.1326923076923077, ""score"": 0.1326923076923077}, {""label"": ""ㄴ"", ""probability"": 0.04038461538461539, ""score"": 0.04038461538461539}, {""label"": ""ㅂ"", ""probability"": 0.03461538461538462, ""score"": 0.03461538461538462}, {""label"": ""ㄱ"", ""probability"": 0.023076923076923078, ""score"": 0.023076923076923078}, {""label"": ""ㄷ"", ""probability"": 0.01730769230769231, ""score"": 0.01730769230769231}]",2026-06-04 09:51:59,0.15,150,250
s01,2026-06-04,1,basic_consonants,Session 1: Basic consonants,10,10,ㄷ,1/150,voice_ml,7,ㄱ|ㄴ|ㄷ|ㅂ|ㅅ|ㅇ|ㅈ,ㄷ,0,1,0.7085462999530137,0.5585462999530136,,3.212287664413452,,,1780534319.3888557,1780534320.0413816,1780534322.6011434,ml_jamo,hangul_learning_results\subject_s01\voice_trials\trial_voice_1780534321365.wav,,,0.3608877998776734,1.2,"[{""label"": ""ㄴ"", ""probability"": 0.06153846153846154, ""score"": 0.06153846153846154}, {""label"": ""ㅇ"", ""probability"": 0.04807692307692308, ""score"": 0.04807692307692308}, {""label"": ""ㄷ"", ""probability"": 0.046153846153846156, ""score"": 0.046153846153846156}, {""label"": ""ㅂ"", ""probability"": 0.023076923076923078, ""score"": 0.023076923076923078}, {""label"": ""ㄱ"", ""probability"": 0.015384615384615385, ""score"": 0.015384615384615385}]",2026-06-04 09:52:02,0.15,150,250
s01,2026-06-04,1,basic_consonants,Session 1: Basic consonants,11,11,ㅂ,6/150,voice_ml,7,ㄱ|ㄴ|ㄷ|ㅂ|ㅅ|ㅇ|ㅈ,ㅂ,0,1,1.234093400184065,1.0840934001840652,,4.305593729019165,,,1780534322.9035203,1780534323.5687091,1780534327.209114,ml_jamo,hangul_learning_results\subject_s01\voice_trials\trial_voice_1780534325954.wav,,,0.368316899985075,1.74,"[{""label"": ""ㅇ"", ""probability"": 0.11153846153846154, ""score"": 0.11153846153846154}, {""label"": ""ㄷ"", ""probability"": 0.08461538461538462, ""score"": 0.08461538461538462}, {""label"": ""ㅂ"", ""probability"": 0.05961538461538462, ""score"": 0.05961538461538462}, {""label"": ""ㄴ"", ""probability"": 0.04230769230769231, ""score"": 0.04230769230769231}, {""label"": ""ㄱ"", ""probability"": 0.028846153846153848, ""score"": 0.028846153846153848}]",2026-06-04 09:52:07,0.15,150,250
s01,2026-06-04,1,basic_consonants,Session 1: Basic consonants,12,12,ㄱ,3/150,voice_ml,7,ㄱ|ㄴ|ㄷ|ㅂ|ㅅ|ㅇ|ㅈ,ㄱ,0,1,0.6697237000335008,0.5197237000335008,,3.4487648010253906,,,1780534327.573901,1780534328.2559586,1780534331.0226657,ml_jamo,hangul_learning_results\subject_s01\voice_trials\trial_voice_1780534329563.wav,,,0.32985829981043935,1.23,"[{""label"": ""ㄴ"", ""probability"": 0.057692307692307696, ""score"": 0.057692307692307696}, {""label"": ""ㄷ"", ""probability"": 0.057692307692307696, ""score"": 0.057692307692307696}, {""label"": ""ㄱ"", ""probability"": 0.046153846153846156, ""score"": 0.046153846153846156}, {""label"": ""ㅇ"", ""probability"": 0.038461538461538464, ""score"": 0.038461538461538464}, {""label"": ""ㅂ"", ""probability"": 0.023076923076923078, ""score"": 0.023076923076923078}]",2026-06-04 09:52:11,0.15,150,250
s01,2026-06-04,1,basic_consonants,Session 1: Basic consonants,13,13,ㅈ,7/150,voice_ml,7,ㄱ|ㄴ|ㄷ|ㅂ|ㅅ|ㅇ|ㅈ,ㅈ,0,1,1.0940237999893725,0.9440237999893725,,3.295217514038086,,,1780534331.3131142,1780534331.9654772,1780534334.6083317,ml_jamo,hangul_learning_results\subject_s01\voice_trials\trial_voice_1780534333735.wav,,,0.3454904002137482,1.26,"[{""label"": ""ㅈ"", ""probability"": 0.125, ""score"": 0.125}, {""label"": ""ㄱ"", ""probability"": 0.07115384615384615, ""score"": 0.07115384615384615}, {""label"": ""ㄷ"", ""probability"": 0.038461538461538464, ""score"": 0.038461538461538464}, {""label"": ""ㅅ"", ""probability"": 0.038461538461538464, ""score"": 0.038461538461538464}, {""label"": ""ㄴ"", ""probability"": 0.01730769230769231, ""score"": 0.01730769230769231}]",2026-06-04 09:52:14,0.15,150,250
s01,2026-06-04,1,basic_consonants,Session 1: Basic consonants,14,14,ㄴ,2/150,voice_ml,7,ㄱ|ㄴ|ㄷ|ㅂ|ㅅ|ㅇ|ㅈ,ㄴ,0,1,0.6511200000531971,0.5011200000531971,,3.8879880905151367,,,1780534335.0181148,1780534335.6420648,1780534338.906103,ml_jamo,hangul_learning_results\subject_s01\voice_trials\trial_voice_1780534337783.wav,,,0.3502108999527991,2.07,"[{""label"": ""ㅇ"", ""probability"": 0.11153846153846153, ""score"": 0.11153846153846153}, {""label"": ""ㄴ"", ""probability"": 0.06153846153846154, ""score"": 0.06153846153846154}, {""label"": ""ㄱ"", ""probability"": 0.03076923076923077, ""score"": 0.03076923076923077}, {""label"": ""ㅂ"", ""probability"": 0.019230769230769232, ""score"": 0.019230769230769232}, {""label"": ""ㄷ"", ""probability"": 0.011538461538461539, ""score"": 0.011538461538461539}]",2026-06-04 09:52:18,0.15,150,250
s01,2026-06-04,2,long_consonants,Session 2: Long consonants,15,1,ㄹ,2/350,voice_ml,7,ㅋ|ㄹ|ㅌ|ㅍ|ㅎ|ㅁ|ㅊ,ㄹ,0,1,0.8747293001506478,0.5247293001506478,,3.5022599697113037,,,1780534340.5174644,1780534341.420669,1780534344.0197244,ml_jamo,hangul_learning_results\subject_s01\voice_trials\trial_voice_1780534343151.wav,,,0.3733262999448925,1.44,"[{""label"": ""ㄹ"", ""probability"": 0.11538461538461539, ""score"": 0.11538461538461539}, {""label"": ""ㅁ"", ""probability"": 0.03653846153846154, ""score"": 0.03653846153846154}, {""label"": ""ㅎ"", ""probability"": 0.015384615384615385, ""score"": 0.015384615384615385}, {""label"": ""ㅌ"", ""probability"": 0.009615384615384616, ""score"": 0.009615384615384616}, {""label"": ""ㅊ"", ""probability"": 0.0038461538461538464, ""score"": 0.0038461538461538464}]",2026-06-04 09:52:24,0.35,150,250
s01,2026-06-04,2,long_consonants,Session 2: Long consonants,16,2,ㅁ,9/350,voice_ml,7,ㅋ|ㄹ|ㅌ|ㅍ|ㅎ|ㅁ|ㅊ,ㅁ,0,1,1.235003300011158,0.885003300011158,,3.5861237049102783,,,1780534344.3459764,1780534345.009378,1780534347.9321,ml_jamo,hangul_learning_results\subject_s01\voice_trials\trial_voice_1780534347123.wav,,,0.3553009999450296,1.47,"[{""label"": ""ㅁ"", ""probability"": 0.07500000000000001, ""score"": 0.07500000000000001}, {""label"": ""ㄹ"", ""probability"": 0.05, ""score"": 0.05}, {""label"": ""ㅎ"", ""probability"": 0.009615384615384616, ""score"": 0.009615384615384616}, {""label"": ""ㅌ"", ""probability"": 0.007692307692307693, ""score"": 0.007692307692307693}, {""label"": ""ㅍ"", ""probability"": 0.007692307692307693, ""score"": 0.007692307692307693}]",2026-06-04 09:52:27,0.35,150,250
s01,2026-06-04,2,long_consonants,Session 2: Long consonants,17,3,ㅍ,6/350,voice_ml,7,ㅋ|ㄹ|ㅌ|ㅍ|ㅎ|ㅁ|ㅊ,ㅍ,0,1,1.4924015998840332,1.1424015998840331,,4.123827934265137,,,1780534348.3147936,1780534349.0476682,1780534352.4386215,ml_jamo,hangul_learning_results\subject_s01\voice_trials\trial_voice_1780534351249.wav,,,0.3243275999557227,1.29,"[{""label"": ""ㅎ"", ""probability"": 0.12884615384615383, ""score"": 0.12884615384615383}, {""label"": ""ㅌ"", ""probability"": 0.11730769230769231, ""score"": 0.11730769230769231}, {""label"": ""ㅍ"", ""probability"": 0.04423076923076923, ""score"": 0.04423076923076923}, {""label"": ""ㅋ"", ""probability"": 0.032692307692307694, ""score"": 0.032692307692307694}, {""label"": ""ㄹ"", ""probability"": 0.026923076923076925, ""score"": 0.026923076923076925}]",2026-06-04 09:52:32,0.35,150,250
s01,2026-06-04,2,long_consonants,Session 2: Long consonants,18,4,ㅊ,7/350,voice_ml,7,ㅋ|ㄹ|ㅌ|ㅍ|ㅎ|ㅁ|ㅊ,ㅍ,1,0,1.8019193999934942,1.451919399993494,,6.34119725227356,,,1780534352.760085,1780534353.440112,1780534359.1012824,ml_jamo,hangul_learning_results\subject_s01\voice_trials\trial_voice_1780534356251.wav,,,0.34918810008093715,1.56,"[{""label"": ""ㄹ"", ""probability"": 0.04423076923076923, ""score"": 0.04423076923076923}, {""label"": ""ㅁ"", ""probability"": 0.03461538461538462, ""score"": 0.03461538461538462}, {""label"": ""ㅎ"", ""probability"": 0.032692307692307694, ""score"": 0.032692307692307694}, {""label"": ""ㅍ"", ""probability"": 0.021153846153846155, ""score"": 0.021153846153846155}, {""label"": ""ㅌ"", ""probability"": 0.011538461538461539, ""score"": 0.011538461538461539}]",2026-06-04 09:52:39,0.35,150,250
s01,2026-06-04,2,long_consonants,Session 2: Long consonants,19,5,ㅋ,3/350,voice_ml,7,ㅋ|ㄹ|ㅌ|ㅍ|ㅎ|ㅁ|ㅊ,ㅋ,0,1,0.9656384999398142,0.6156384999398142,,3.7150185108184814,,,1780534360.404954,1780534361.1683805,1780534364.1199725,ml_jamo,hangul_learning_results\subject_s01\voice_trials\trial_voice_1780534362837.wav,,,0.34487199992872775,1.29,"[{""label"": ""ㅎ"", ""probability"": 0.09615384615384616, ""score"": 0.09615384615384616}, {""label"": ""ㅌ"", ""probability"": 0.04807692307692308, ""score"": 0.04807692307692308}, {""label"": ""ㅋ"", ""probability"": 0.019230769230769232, ""score"": 0.019230769230769232}, {""label"": ""ㅍ"", ""probability"": 0.019230769230769232, ""score"": 0.019230769230769232}, {""label"": ""ㅊ"", ""probability"": 0.015384615384615385, ""score"": 0.015384615384615385}]",2026-06-04 09:52:44,0.35,150,250
s01,2026-06-04,2,long_consonants,Session 2: Long consonants,20,6,ㅎ,4/350,voice_ml,7,ㅋ|ㄹ|ㅌ|ㅍ|ㅎ|ㅁ|ㅊ,ㅎ,0,1,1.49555080011487,1.14555080011487,,3.7868173122406006,,,1780534366.5502715,1780534367.1837766,1780534370.3370888,ml_jamo,hangul_learning_results\subject_s01\voice_trials\trial_voice_1780534369496.wav,,,0.3725286000408232,1.35,"[{""label"": ""ㅎ"", ""probability"": 0.16730769230769232, ""score"": 0.16730769230769232}, {""label"": ""ㅌ"", ""probability"": 0.06346153846153846, ""score"": 0.06346153846153846}, {""label"": ""ㄹ"", ""probability"": 0.025, ""score"": 0.025}, {""label"": ""ㅋ"", ""probability"": 0.019230769230769232, ""score"": 0.019230769230769232}, {""label"": ""ㅁ"", ""probability"": 0.011538461538461539, ""score"": 0.011538461538461539}]",2026-06-04 09:52:50,0.35,150,250
s01,2026-06-04,2,long_consonants,Session 2: Long consonants,21,7,ㅌ,1/350,voice_ml,7,ㅋ|ㄹ|ㅌ|ㅍ|ㅎ|ㅁ|ㅊ,ㅌ,0,1,1.1260530999861658,0.7760530999861658,,3.6192617416381836,,,1780534370.7019925,1780534371.3539014,1780534374.3212543,ml_jamo,hangul_learning_results\subject_s01\voice_trials\trial_voice_1780534373104.wav,,,0.3660695001017302,1.2,"[{""label"": ""ㅎ"", ""probability"": 0.09807692307692309, ""score"": 0.09807692307692309}, {""label"": ""ㅌ"", ""probability"": 0.026923076923076925, ""score"": 0.026923076923076925}, {""label"": ""ㄹ"", ""probability"": 0.025, ""score"": 0.025}, {""label"": ""ㅋ"", ""probability"": 0.021153846153846155, ""score"": 0.021153846153846155}, {""label"": ""ㅍ"", ""probability"": 0.013461538461538462, ""score"": 0.013461538461538462}]",2026-06-04 09:52:54,0.35,150,250
s01,2026-06-04,2,long_consonants,Session 2: Long consonants,22,8,ㅍ,6/350,voice_ml,7,ㅋ|ㄹ|ㅌ|ㅍ|ㅎ|ㅁ|ㅊ,ㅍ,0,1,1.6804752999451011,1.330475299945101,,4.352651596069336,,,1780534374.655068,1780534375.307745,1780534379.0077195,ml_jamo,hangul_learning_results\subject_s01\voice_trials\trial_voice_1780534377774.wav,,,0.3460474000312388,1.32,"[{""label"": ""ㅎ"", ""probability"": 0.11538461538461539, ""score"": 0.11538461538461539}, {""label"": ""ㅌ"", ""probability"": 0.07692307692307693, ""score"": 0.07692307692307693}, {""label"": ""ㅍ"", ""probability"": 0.057692307692307696, ""score"": 0.057692307692307696}, {""label"": ""ㅁ"", ""probability"": 0.025, ""score"": 0.025}, {""label"": ""ㅋ"", ""probability"": 0.023076923076923078, ""score"": 0.023076923076923078}]",2026-06-04 09:52:59,0.35,150,250
s01,2026-06-04,2,long_consonants,Session 2: Long consonants,23,9,ㄹ,2/350,voice_ml,7,ㅋ|ㄹ|ㅌ|ㅍ|ㅎ|ㅁ|ㅊ,ㄹ,0,1,0.8152937998529524,0.4652937998529524,,3.2413768768310547,,,1780534379.293881,1780534379.9578907,1780534382.5352578,ml_jamo,hangul_learning_results\subject_s01\voice_trials\trial_voice_1780534381646.wav,,,0.33981799986213446,1.47,"[{""label"": ""ㄹ"", ""probability"": 0.1576923076923077, ""score"": 0.1576923076923077}, {""label"": ""ㅁ"", ""probability"": 0.026923076923076925, ""score"": 0.026923076923076925}, {""label"": ""ㅎ"", ""probability"": 0.007692307692307693, ""score"": 0.007692307692307693}, {""label"": ""ㅌ"", ""probability"": 0.0038461538461538464, ""score"": 0.0038461538461538464}, {""label"": ""ㅊ"", ""probability"": 0.0019230769230769232, ""score"": 0.0019230769230769232}]",2026-06-04 09:53:02,0.35,150,250
s01,2026-06-04,2,long_consonants,Session 2: Long consonants,24,10,ㅋ,3/350,voice_ml,7,ㅋ|ㄹ|ㅌ|ㅍ|ㅎ|ㅁ|ㅊ,ㅋ,0,1,0.9193380000069737,0.5693380000069738,,4.432785987854004,,,1780534383.2155633,1780534383.8684666,1780534387.6483493,ml_jamo,hangul_learning_results\subject_s01\voice_trials\trial_voice_1780534385556.wav,,,0.3463111000601202,1.29,"[{""label"": ""ㅎ"", ""probability"": 0.1596153846153846, ""score"": 0.1596153846153846}, {""label"": ""ㅌ"", ""probability"": 0.0826923076923077, ""score"": 0.0826923076923077}, {""label"": ""ㅍ"", ""probability"": 0.04423076923076923, ""score"": 0.04423076923076923}, {""label"": ""ㅊ"", ""probability"": 0.03076923076923077, ""score"": 0.03076923076923077}, {""label"": ""ㅋ"", ""probability"": 0.03076923076923077, ""score"": 0.03076923076923077}]",2026-06-04 09:53:07,0.35,150,250
s01,2026-06-04,2,long_consonants,Session 2: Long consonants,25,11,ㅌ,1/350,voice_ml,7,ㅋ|ㄹ|ㅌ|ㅍ|ㅎ|ㅁ|ㅊ,ㅌ,0,1,0.8933352001477033,0.5433352001477033,,3.1552023887634277,,,1780534387.9497175,1780534388.6037862,1780534391.10492,ml_jamo,hangul_learning_results\subject_s01\voice_trials\trial_voice_1780534390234.wav,,,0.36293460009619594,1.29,"[{""label"": ""ㅌ"", ""probability"": 0.1076923076923077, ""score"": 0.1076923076923077}, {""label"": ""ㅍ"", ""probability"": 0.09230769230769231, ""score"": 0.09230769230769231}, {""label"": ""ㅎ"", ""probability"": 0.028846153846153848, ""score"": 0.028846153846153848}, {""label"": ""ㅁ"", ""probability"": 0.026923076923076925, ""score"": 0.026923076923076925}, {""label"": ""ㅋ"", ""probability"": 0.019230769230769232, ""score"": 0.019230769230769232}]",2026-06-04 09:53:11,0.35,150,250
s01,2026-06-04,2,long_consonants,Session 2: Long consonants,26,12,ㅎ,4/350,voice_ml,7,ㅋ|ㄹ|ㅌ|ㅍ|ㅎ|ㅁ|ㅊ,ㅎ,0,1,1.1606405000202358,0.8106405000202358,,3.5008625984191895,,,1780534391.4553814,1780534392.1052136,1780534394.956244,ml_jamo,hangul_learning_results\subject_s01\voice_trials\trial_voice_1780534394026.wav,,,0.34754309989511967,1.32,"[{""label"": ""ㅎ"", ""probability"": 0.11346153846153847, ""score"": 0.11346153846153847}, {""label"": ""ㅌ"", ""probability"": 0.046153846153846156, ""score"": 0.046153846153846156}, {""label"": ""ㄹ"", ""probability"": 0.03653846153846154, ""score"": 0.03653846153846154}, {""label"": ""ㅍ"", ""probability"": 0.023076923076923078, ""score"": 0.023076923076923078}, {""label"": ""ㅁ"", ""probability"": 0.021153846153846155, ""score"": 0.021153846153846155}]",2026-06-04 09:53:14,0.35,150,250
s01,2026-06-04,2,long_consonants,Session 2: Long consonants,27,13,ㅁ,9/350,voice_ml,7,ㅋ|ㄹ|ㅌ|ㅍ|ㅎ|ㅁ|ㅊ,ㅁ,0,1,0.9713862000498921,0.6213862000498921,,3.289882183074951,,,1780534395.3232481,1780534395.9425588,1780534398.6131303,ml_jamo,hangul_learning_results\subject_s01\voice_trials\trial_voice_1780534397833.wav,,,0.3321308000013232,1.47,"[{""label"": ""ㅁ"", ""probability"": 0.14615384615384616, ""score"": 0.14615384615384616}, {""label"": ""ㄹ"", ""probability"": 0.026923076923076925, ""score"": 0.026923076923076925}, {""label"": ""ㅎ"", ""probability"": 0.007692307692307693, ""score"": 0.007692307692307693}, {""label"": ""ㅌ"", ""probability"": 0.0057692307692307696, ""score"": 0.0057692307692307696}, {""label"": ""ㅋ"", ""probability"": 0.0038461538461538464, ""score"": 0.0038461538461538464}]",2026-06-04 09:53:18,0.35,150,250
s01,2026-06-04,2,long_consonants,Session 2: Long consonants,28,14,ㅊ,7/350,voice_ml,7,ㅋ|ㄹ|ㅌ|ㅍ|ㅎ|ㅁ|ㅊ,ㅊ,0,1,0.8152300000656396,0.46523000006563964,,3.982151746749878,,,1780534399.2814405,1780534399.9322145,1780534403.2635922,ml_jamo,hangul_learning_results\subject_s01\voice_trials\trial_voice_1780534401532.wav,,,0.34098699991591275,1.32,"[{""label"": ""ㅎ"", ""probability"": 0.06923076923076923, ""score"": 0.06923076923076923}, {""label"": ""ㅌ"", ""probability"": 0.04807692307692308, ""score"": 0.04807692307692308}, {""label"": ""ㅍ"", ""probability"": 0.04230769230769231, ""score"": 0.04230769230769231}, {""label"": ""ㅁ"", ""probability"": 0.025, ""score"": 0.025}, {""label"": ""ㅊ"", ""probability"": 0.023076923076923078, ""score"": 0.023076923076923078}]",2026-06-04 09:53:23,0.35,150,250
s01,2026-06-04,2,long_consonants,Session 2: Long consonants,29,15,ㅋ,3/350,voice_ml,7,ㅋ|ㄹ|ㅌ|ㅍ|ㅎ|ㅁ|ㅊ,ㅋ,0,1,0.7628854000940919,0.4128854000940919,,4.037232398986816,,,1780534403.6134822,1780534404.2603533,1780534407.6507146,ml_jamo,hangul_learning_results\subject_s01\voice_trials\trial_voice_1780534405793.wav,,,0.3303382000885904,1.35,"[{""label"": ""ㅎ"", ""probability"": 0.06923076923076923, ""score"": 0.06923076923076923}, {""label"": ""ㅌ"", ""probability"": 0.038461538461538464, ""score"": 0.038461538461538464}, {""label"": ""ㄹ"", ""probability"": 0.015384615384615385, ""score"": 0.015384615384615385}, {""label"": ""ㅁ"", ""probability"": 0.015384615384615385, ""score"": 0.015384615384615385}, {""label"": ""ㅋ"", ""probability"": 0.011538461538461539, ""score"": 0.011538461538461539}]",2026-06-04 09:53:27,0.35,150,250
s01,2026-06-04,2,long_consonants,Session 2: Long consonants,30,16,ㄹ,2/350,voice_ml,7,ㅋ|ㄹ|ㅌ|ㅍ|ㅎ|ㅁ|ㅊ,ㄹ,0,1,0.6569088997785002,0.3069088997785002,,3.1848981380462646,,,1780534407.9306612,1780534408.583912,1780534411.1155593,ml_jamo,hangul_learning_results\subject_s01\voice_trials\trial_voice_1780534410211.wav,,,0.34559949999675155,1.5,"[{""label"": ""ㄹ"", ""probability"": 0.14615384615384613, ""score"": 0.14615384615384613}, {""label"": ""ㅁ"", ""probability"": 0.019230769230769232, ""score"": 0.019230769230769232}, {""label"": ""ㅌ"", ""probability"": 0.009615384615384616, ""score"": 0.009615384615384616}, {""label"": ""ㅎ"", ""probability"": 0.0038461538461538464, ""score"": 0.0038461538461538464}, {""label"": ""ㅊ"", ""probability"": 0.0019230769230769232, ""score"": 0.0019230769230769232}]",2026-06-04 09:53:31,0.35,150,250
s01,2026-06-04,2,long_consonants,Session 2: Long consonants,31,17,ㅌ,1/350,voice_ml,7,ㅋ|ㄹ|ㅌ|ㅍ|ㅎ|ㅁ|ㅊ,ㅌ,0,1,0.787173300050199,0.43717330005019905,,3.499772787094116,,,1780534411.5930333,1780534412.2574947,1780534415.092806,ml_jamo,hangul_learning_results\subject_s01\voice_trials\trial_voice_1780534413861.wav,,,0.3556562999729067,1.35,"[{""label"": ""ㅌ"", ""probability"": 0.11538461538461539, ""score"": 0.11538461538461539}, {""label"": ""ㅍ"", ""probability"": 0.09807692307692309, ""score"": 0.09807692307692309}, {""label"": ""ㅋ"", ""probability"": 0.04423076923076923, ""score"": 0.04423076923076923}, {""label"": ""ㅊ"", ""probability"": 0.019230769230769232, ""score"": 0.019230769230769232}, {""label"": ""ㅁ"", ""probability"": 0.015384615384615385, ""score"": 0.015384615384615385}]",2026-06-04 09:53:35,0.35,150,250
s01,2026-06-04,2,long_consonants,Session 2: Long consonants,32,18,ㅁ,9/350,voice_ml,7,ㅋ|ㄹ|ㅌ|ㅍ|ㅎ|ㅁ|ㅊ,ㅁ,0,1,0.948846299899742,0.598846299899742,,3.357313871383667,,,1780534415.5346487,1780534416.1559544,1780534418.8919625,ml_jamo,hangul_learning_results\subject_s01\voice_trials\trial_voice_1780534417955.wav,,,0.38437270000576973,1.44,"[{""label"": ""ㅁ"", ""probability"": 0.12692307692307692, ""score"": 0.12692307692307692}, {""label"": ""ㄹ"", ""probability"": 0.026923076923076925, ""score"": 0.026923076923076925}, {""label"": ""ㅎ"", ""probability"": 0.007692307692307693, ""score"": 0.007692307692307693}, {""label"": ""ㅍ"", ""probability"": 0.0038461538461538464, ""score"": 0.0038461538461538464}, {""label"": ""ㅌ"", ""probability"": 0.0019230769230769232, ""score"": 0.0019230769230769232}]",2026-06-04 09:53:38,0.35,150,250
s01,2026-06-04,3,double_consonants,Session 3: Double consonants,33,1,ㅉ,7/150.0/150.7/150,voice_ml,5,ㄲ|ㄸ|ㅃ|ㅆ|ㅉ,ㅉ,0,1,1.0130119000095874,0.5623119000095874,,4.411256551742554,,,1780534420.6035163,1780534421.5141864,1780534425.014773,ml_jamo,hangul_learning_results\subject_s01\voice_trials\trial_voice_1780534423511.wav,,,0.3525825999677181,1.53,"[{""label"": ""ㄲ"", ""probability"": 0.1326923076923077, ""score"": 0.1326923076923077}, {""label"": ""ㅃ"", ""probability"": 0.12884615384615383, ""score"": 0.12884615384615383}, {""label"": ""ㅆ"", ""probability"": 0.125, ""score"": 0.125}, {""label"": ""ㅉ"", ""probability"": 0.07500000000000001, ""score"": 0.07500000000000001}, {""label"": ""ㄸ"", ""probability"": 0.03653846153846154, ""score"": 0.03653846153846154}]",2026-06-04 09:53:45,0.4507,150,250
s01,2026-06-04,3,double_consonants,Session 3: Double consonants,34,2,ㄸ,1/150.0/150.1/150,voice_ml,5,ㄲ|ㄸ|ㅃ|ㅆ|ㅉ,ㄸ,0,1,0.782225500093773,0.332125500093773,,3.812532901763916,,,1780534425.328576,1780534425.9499097,1780534429.141109,ml_jamo,hangul_learning_results\subject_s01\voice_trials\trial_voice_1780534427701.wav,,,0.33968060021288693,1.5,"[{""label"": ""ㅃ"", ""probability"": 0.14807692307692308, ""score"": 0.14807692307692308}, {""label"": ""ㄲ"", ""probability"": 0.10576923076923078, ""score"": 0.10576923076923078}, {""label"": ""ㅆ"", ""probability"": 0.046153846153846156, ""score"": 0.046153846153846156}, {""label"": ""ㄸ"", ""probability"": 0.04230769230769231, ""score"": 0.04230769230769231}, {""label"": ""ㅉ"", ""probability"": 0.013461538461538462, ""score"": 0.013461538461538462}]",2026-06-04 09:53:49,0.4501,150,250
s01,2026-06-04,3,double_consonants,Session 3: Double consonants,35,3,ㅃ,6/150.0/150.6/150,voice_ml,5,ㄲ|ㄸ|ㅃ|ㅆ|ㅉ,ㅃ,0,1,1.0783615000545979,0.6277615000545979,,3.639902114868164,,,1780534429.4364057,1780534430.086892,1780534433.0763078,ml_jamo,hangul_learning_results\subject_s01\voice_trials\trial_voice_1780534432223.wav,,,0.346273300005123,1.59,"[{""label"": ""ㅃ"", ""probability"": 0.17115384615384616, ""score"": 0.17115384615384616}, {""label"": ""ㄲ"", ""probability"": 0.08653846153846154, ""score"": 0.08653846153846154}, {""label"": ""ㅆ"", ""probability"": 0.07884615384615384, ""score"": 0.07884615384615384}, {""label"": ""ㄸ"", ""probability"": 0.05576923076923077, ""score"": 0.05576923076923077}, {""label"": ""ㅉ"", ""probability"": 0.03653846153846154, ""score"": 0.03653846153846154}]",2026-06-04 09:53:53,0.4506,150,250
s01,2026-06-04,3,double_consonants,Session 3: Double consonants,36,4,ㅆ,4/150.0/150.4/150,voice_ml,5,ㄲ|ㄸ|ㅃ|ㅆ|ㅉ,ㅆ,0,1,1.1436526998877525,0.6932526998877526,,3.4844748973846436,,,1780534433.3938756,1780534434.0331278,1780534436.8783505,ml_jamo,hangul_learning_results\subject_s01\voice_trials\trial_voice_1780534436023.wav,,,0.3479639000725001,1.44,"[{""label"": ""ㅆ"", ""probability"": 0.19423076923076923, ""score"": 0.19423076923076923}, {""label"": ""ㄲ"", ""probability"": 0.06538461538461539, ""score"": 0.06538461538461539}, {""label"": ""ㅃ"", ""probability"": 0.04807692307692308, ""score"": 0.04807692307692308}, {""label"": ""ㅉ"", ""probability"": 0.04807692307692308, ""score"": 0.04807692307692308}, {""label"": ""ㄸ"", ""probability"": 0.03461538461538462, ""score"": 0.03461538461538462}]",2026-06-04 09:53:56,0.45039999999999997,150,250
s01,2026-06-04,3,double_consonants,Session 3: Double consonants,37,5,ㄲ,3/150.0/150.3/150,voice_ml,5,ㄲ|ㄸ|ㅃ|ㅆ|ㅉ,ㄲ,0,1,0.7772640001494437,0.3269640001494437,,3.2882418632507324,,,1780534437.2438304,1780534437.8790054,1780534440.5320723,ml_jamo,hangul_learning_results\subject_s01\voice_trials\trial_voice_1780534439576.wav,,,0.3569494001567364,1.47,"[{""label"": ""ㅃ"", ""probability"": 0.11346153846153846, ""score"": 0.11346153846153846}, {""label"": ""ㄲ"", ""probability"": 0.11153846153846154, ""score"": 0.11153846153846154}, {""label"": ""ㅉ"", ""probability"": 0.032692307692307694, ""score"": 0.032692307692307694}, {""label"": ""ㅆ"", ""probability"": 0.026923076923076925, ""score"": 0.026923076923076925}, {""label"": ""ㄸ"", ""probability"": 0.01730769230769231, ""score"": 0.01730769230769231}]",2026-06-04 09:54:00,0.45030000000000003,150,250
s01,2026-06-04,3,double_consonants,Session 3: Double consonants,38,6,ㅉ,7/150.0/150.7/150,voice_ml,5,ㄲ|ㄸ|ㅃ|ㅆ|ㅉ,ㅉ,0,1,0.9391127000562847,0.4884127000562847,,3.4294238090515137,,,1780534440.8511534,1780534441.4799328,1780534444.2805772,ml_jamo,hangul_learning_results\subject_s01\voice_trials\trial_voice_1780534443486.wav,,,0.33300679991953075,1.65,"[{""label"": ""ㅉ"", ""probability"": 0.13846153846153847, ""score"": 0.13846153846153847}, {""label"": ""ㄲ"", ""probability"": 0.07500000000000001, ""score"": 0.07500000000000001}, {""label"": ""ㅃ"", ""probability"": 0.07500000000000001, ""score"": 0.07500000000000001}, {""label"": ""ㅆ"", ""probability"": 0.06153846153846154, ""score"": 0.06153846153846154}, {""label"": ""ㄸ"", ""probability"": 0.01730769230769231, ""score"": 0.01730769230769231}]",2026-06-04 09:54:04,0.4507,150,250
s01,2026-06-04,3,double_consonants,Session 3: Double consonants,39,7,ㄲ,3/150.0/150.3/150,voice_ml,5,ㄲ|ㄸ|ㅃ|ㅆ|ㅉ,ㄲ,0,1,0.7967438001651317,0.34644380016513165,,3.2573740482330322,,,1780534444.9790292,1780534445.615549,1780534448.2364032,ml_jamo,hangul_learning_results\subject_s01\voice_trials\trial_voice_1780534447271.wav,,,0.3365211000200361,1.44,"[{""label"": ""ㅃ"", ""probability"": 0.09230769230769231, ""score"": 0.09230769230769231}, {""label"": ""ㄲ"", ""probability"": 0.07115384615384615, ""score"": 0.07115384615384615}, {""label"": ""ㅆ"", ""probability"": 0.032692307692307694, ""score"": 0.032692307692307694}, {""label"": ""ㄸ"", ""probability"": 0.026923076923076925, ""score"": 0.026923076923076925}, {""label"": ""ㅉ"", ""probability"": 0.021153846153846155, ""score"": 0.021153846153846155}]",2026-06-04 09:54:08,0.45030000000000003,150,250
s01,2026-06-04,3,double_consonants,Session 3: Double consonants,40,8,ㅃ,6/150.0/150.6/150,voice_ml,5,ㄲ|ㄸ|ㅃ|ㅆ|ㅉ,ㅃ,0,1,0.924519999884069,0.47391999988406897,,3.238771915435791,,,1780534448.570975,1780534449.2386215,1780534451.809747,ml_jamo,hangul_learning_results\subject_s01\voice_trials\trial_voice_1780534450990.wav,,,0.33632000000216067,1.41,"[{""label"": ""ㅃ"", ""probability"": 0.12307692307692308, ""score"": 0.12307692307692308}, {""label"": ""ㄲ"", ""probability"": 0.06923076923076923, ""score"": 0.06923076923076923}, {""label"": ""ㄸ"", ""probability"": 0.05384615384615385, ""score"": 0.05384615384615385}, {""label"": ""ㅉ"", ""probability"": 0.04423076923076923, ""score"": 0.04423076923076923}, {""label"": ""ㅆ"", ""probability"": 0.03653846153846154, ""score"": 0.03653846153846154}]",2026-06-04 09:54:11,0.4506,150,250
s01,2026-06-04,3,double_consonants,Session 3: Double consonants,41,9,ㄸ,1/150.0/150.1/150,voice_ml,5,ㄲ|ㄸ|ㅃ|ㅆ|ㅉ,ㄸ,0,1,0.7834701000247151,0.33337010002471507,,3.9505817890167236,,,1780534452.1317751,1780534452.8015456,1780534456.082357,ml_jamo,hangul_learning_results\subject_s01\voice_trials\trial_voice_1780534454476.wav,,,0.33848790009506047,1.47,"[{""label"": ""ㅃ"", ""probability"": 0.09807692307692308, ""score"": 0.09807692307692308}, {""label"": ""ㅉ"", ""probability"": 0.05, ""score"": 0.05}, {""label"": ""ㄲ"", ""probability"": 0.04038461538461539, ""score"": 0.04038461538461539}, {""label"": ""ㅆ"", ""probability"": 0.038461538461538464, ""score"": 0.038461538461538464}, {""label"": ""ㄸ"", ""probability"": 0.03653846153846154, ""score"": 0.03653846153846154}]",2026-06-04 09:54:16,0.4501,150,250
s01,2026-06-04,3,double_consonants,Session 3: Double consonants,42,10,ㅆ,4/150.0/150.4/150,voice_ml,5,ㄲ|ㄸ|ㅃ|ㅆ|ㅉ,ㅆ,0,1,0.9354886000510305,0.48508860005103055,,3.5070459842681885,,,1780534456.36953,1780534457.0377595,1780534459.876576,ml_jamo,hangul_learning_results\subject_s01\voice_trials\trial_voice_1780534458860.wav,,,0.3655064001213759,1.44,"[{""label"": ""ㅃ"", ""probability"": 0.06923076923076923, ""score"": 0.06923076923076923}, {""label"": ""ㅆ"", ""probability"": 0.06923076923076923, ""score"": 0.06923076923076923}, {""label"": ""ㄲ"", ""probability"": 0.057692307692307696, ""score"": 0.057692307692307696}, {""label"": ""ㅉ"", ""probability"": 0.046153846153846156, ""score"": 0.046153846153846156}, {""label"": ""ㄸ"", ""probability"": 0.021153846153846155, ""score"": 0.021153846153846155}]",2026-06-04 09:54:19,0.45039999999999997,150,250
s01,2026-06-04,4,all_consonants,Session 4: All consonants,43,1,ㅆ,4/150.0/150.4/150,voice_ml,19,ㄱ|ㄴ|ㄷ|ㅂ|ㅅ|ㅇ|ㅈ|ㅋ|ㄹ|ㅌ|ㅍ|ㅎ|ㅁ|ㅊ|ㄲ|ㄸ|ㅃ|ㅆ|ㅉ,ㅆ,0,1,0.9468247001059353,0.49642470010593537,,3.519279956817627,,,1780534461.14279,1780534462.065415,1780534464.66207,ml_jamo,hangul_learning_results\subject_s01\voice_trials\trial_voice_1780534463868.wav,,,0.34532510000281036,1.41,"[{""label"": ""ㅆ"", ""probability"": 0.0903846153846154, ""score"": 0.0903846153846154}, {""label"": ""ㄲ"", ""probability"": 0.07692307692307693, ""score"": 0.07692307692307693}, {""label"": ""ㅃ"", ""probability"": 0.05961538461538462, ""score"": 0.05961538461538462}, {""label"": ""ㅅ"", ""probability"": 0.051923076923076926, ""score"": 0.051923076923076926}, {""label"": ""ㅉ"", ""probability"": 0.04423076923076923, ""score"": 0.04423076923076923}]",2026-06-04 09:54:24,0.45039999999999997,150,250
s01,2026-06-04,4,all_consonants,Session 4: All consonants,44,2,ㅈ,7/150,voice_ml,19,ㄱ|ㄴ|ㄷ|ㅂ|ㅅ|ㅇ|ㅈ|ㅋ|ㄹ|ㅌ|ㅍ|ㅎ|ㅁ|ㅊ|ㄲ|ㄸ|ㅃ|ㅆ|ㅉ,ㅈ,0,1,1.2038249999750406,1.0538249999750406,,3.622889757156372,,,1780534465.0043635,1780534465.8228185,1780534468.6272533,ml_jamo,hangul_learning_results\subject_s01\voice_trials\trial_voice_1780534467740.wav,,,0.36805659998208284,1.26,"[{""label"": ""ㅈ"", ""probability"": 0.17115384615384616, ""score"": 0.17115384615384616}, {""label"": ""ㅌ"", ""probability"": 0.14807692307692308, ""score"": 0.14807692307692308}, {""label"": ""ㅍ"", ""probability"": 0.08653846153846154, ""score"": 0.08653846153846154}, {""label"": ""ㄱ"", ""probability"": 0.06153846153846154, ""score"": 0.06153846153846154}, {""label"": ""ㅃ"", ""probability"": 0.05961538461538462, ""score"": 0.05961538461538462}]",2026-06-04 09:54:28,0.15,150,250
s01,2026-06-04,4,all_consonants,Session 4: All consonants,45,3,ㅁ,9/350,voice_ml,19,ㄱ|ㄴ|ㄷ|ㅂ|ㅅ|ㅇ|ㅈ|ㅋ|ㄹ|ㅌ|ㅍ|ㅎ|ㅁ|ㅊ|ㄲ|ㄸ|ㅃ|ㅆ|ㅉ,ㅁ,0,1,1.0424973999615759,0.6924973999615759,,3.5406267642974854,,,1780534468.9619384,1780534469.7224014,1780534472.5025651,ml_jamo,hangul_learning_results\subject_s01\voice_trials\trial_voice_1780534471715.wav,,,0.34585179993882775,1.47,"[{""label"": ""ㅁ"", ""probability"": 0.24423076923076922, ""score"": 0.24423076923076922}, {""label"": ""ㄴ"", ""probability"": 0.11923076923076924, ""score"": 0.11923076923076924}, {""label"": ""ㅇ"", ""probability"": 0.09230769230769231, ""score"": 0.09230769230769231}, {""label"": ""ㄹ"", ""probability"": 0.06153846153846154, ""score"": 0.06153846153846154}, {""label"": ""ㅎ"", ""probability"": 0.01730769230769231, ""score"": 0.01730769230769231}]",2026-06-04 09:54:32,0.35,150,250
s01,2026-06-04,4,all_consonants,Session 4: All consonants,46,4,ㅍ,6/350,voice_ml,19,ㄱ|ㄴ|ㄷ|ㅂ|ㅅ|ㅇ|ㅈ|ㅋ|ㄹ|ㅌ|ㅍ|ㅎ|ㅁ|ㅊ|ㄲ|ㄸ|ㅃ|ㅆ|ㅉ,ㅍ,1,1,1.5618565999902785,1.2118565999902784,,6.076756477355957,,,1780534472.8701386,1780534473.5380833,1780534478.9468951,ml_jamo,hangul_learning_results\subject_s01\voice_trials\trial_voice_1780534475834.wav,,,0.34116520010866225,1.29,"[{""label"": ""ㅎ"", ""probability"": 0.15384615384615385, ""score"": 0.15384615384615385}, {""label"": ""ㅌ"", ""probability"": 0.14038461538461539, ""score"": 0.14038461538461539}, {""label"": ""ㄱ"", ""probability"": 0.06538461538461539, ""score"": 0.06538461538461539}, {""label"": ""ㄷ"", ""probability"": 0.06346153846153846, ""score"": 0.06346153846153846}, {""label"": ""ㅃ"", ""probability"": 0.05576923076923077, ""score"": 0.05576923076923077}]",2026-06-04 09:54:38,0.35,150,250
s01,2026-06-04,4,all_consonants,Session 4: All consonants,47,5,ㄲ,3/150.0/150.3/150,voice_ml,19,ㄱ|ㄴ|ㄷ|ㅂ|ㅅ|ㅇ|ㅈ|ㅋ|ㄹ|ㅌ|ㅍ|ㅎ|ㅁ|ㅊ|ㄲ|ㄸ|ㅃ|ㅆ|ㅉ,ㄲ,0,1,0.96593980002217,0.5156398000221699,,3.3541500568389893,,,1780534480.1827126,1780534480.8326185,1780534483.5368626,ml_jamo,hangul_learning_results\subject_s01\voice_trials\trial_voice_1780534482692.wav,,,0.3386801998130977,1.47,"[{""label"": ""ㄲ"", ""probability"": 0.16538461538461538, ""score"": 0.16538461538461538}, {""label"": ""ㅃ"", ""probability"": 0.13076923076923078, ""score"": 0.13076923076923078}, {""label"": ""ㅆ"", ""probability"": 0.05576923076923077, ""score"": 0.05576923076923077}, {""label"": ""ㄱ"", ""probability"": 0.04807692307692308, ""score"": 0.04807692307692308}, {""label"": ""ㄸ"", ""probability"": 0.04423076923076923, ""score"": 0.04423076923076923}]",2026-06-04 09:54:43,0.45030000000000003,150,250
s01,2026-06-04,4,all_consonants,Session 4: All consonants,48,6,ㄹ,2/350,voice_ml,19,ㄱ|ㄴ|ㄷ|ㅂ|ㅅ|ㅇ|ㅈ|ㅋ|ㄹ|ㅌ|ㅍ|ㅎ|ㅁ|ㅊ|ㄲ|ㄸ|ㅃ|ㅆ|ㅉ,ㄹ,0,1,0.7898899998981506,0.4398899998981506,,3.154038667678833,,,1780534483.8817122,1780534484.527138,1780534487.0357509,ml_jamo,hangul_learning_results\subject_s01\voice_trials\trial_voice_1780534486218.wav,,,0.3350372000131756,1.47,"[{""label"": ""ㄹ"", ""probability"": 0.1, ""score"": 0.1}, {""label"": ""ㅇ"", ""probability"": 0.09615384615384616, ""score"": 0.09615384615384616}, {""label"": ""ㄴ"", ""probability"": 0.06153846153846154, ""score"": 0.06153846153846154}, {""label"": ""ㅁ"", ""probability"": 0.032692307692307694, ""score"": 0.032692307692307694}, {""label"": ""ㅂ"", ""probability"": 0.026923076923076925, ""score"": 0.026923076923076925}]",2026-06-04 09:54:47,0.35,150,250
s01,2026-06-04,4,all_consonants,Session 4: All consonants,49,7,ㅌ,1/350,voice_ml,19,ㄱ|ㄴ|ㄷ|ㅂ|ㅅ|ㅇ|ㅈ|ㅋ|ㄹ|ㅌ|ㅍ|ㅎ|ㅁ|ㅊ|ㄲ|ㄸ|ㅃ|ㅆ|ㅉ,ㅌ,0,1,0.9361574999056756,0.5861574999056757,,3.1025006771087646,,,1780534487.7679179,1780534488.405063,1780534490.8704185,ml_jamo,hangul_learning_results\subject_s01\voice_trials\trial_voice_1780534490059.wav,,,0.32504899986088276,1.29,"[{""label"": ""ㅌ"", ""probability"": 0.125, ""score"": 0.125}, {""label"": ""ㅍ"", ""probability"": 0.1, ""score"": 0.1}, {""label"": ""ㄷ"", ""probability"": 0.08076923076923077, ""score"": 0.08076923076923077}, {""label"": ""ㅈ"", ""probability"": 0.07500000000000001, ""score"": 0.07500000000000001}, {""label"": ""ㄱ"", ""probability"": 0.06730769230769232, ""score"": 0.06730769230769232}]",2026-06-04 09:54:50,0.35,150,250
s01,2026-06-04,4,all_consonants,Session 4: All consonants,50,8,ㅂ,6/150,voice_ml,19,ㄱ|ㄴ|ㄷ|ㅂ|ㅅ|ㅇ|ㅈ|ㅋ|ㄹ|ㅌ|ㅍ|ㅎ|ㅁ|ㅊ|ㄲ|ㄸ|ㅃ|ㅆ|ㅉ,ㅂ,0,1,1.1829850000794977,1.0329850000794978,,4.808875560760498,,,1780534491.5066223,1780534492.1566308,1780534496.3154979,ml_jamo,hangul_learning_results\subject_s01\voice_trials\trial_voice_1780534494403.wav,,,0.3588509999681264,1.62,"[{""label"": ""ㄴ"", ""probability"": 0.08653846153846154, ""score"": 0.08653846153846154}, {""label"": ""ㅇ"", ""probability"": 0.057692307692307696, ""score"": 0.057692307692307696}, {""label"": ""ㄹ"", ""probability"": 0.05384615384615385, ""score"": 0.05384615384615385}, {""label"": ""ㅂ"", ""probability"": 0.051923076923076926, ""score"": 0.051923076923076926}, {""label"": ""ㅁ"", ""probability"": 0.046153846153846156, ""score"": 0.046153846153846156}]",2026-06-04 09:54:56,0.15,150,250
s01,2026-06-04,4,all_consonants,Session 4: All consonants,51,9,ㅎ,4/350,voice_ml,19,ㄱ|ㄴ|ㄷ|ㅂ|ㅅ|ㅇ|ㅈ|ㅋ|ㄹ|ㅌ|ㅍ|ㅎ|ㅁ|ㅊ|ㄲ|ㄸ|ㅃ|ㅆ|ㅉ,ㅎ,0,1,1.6946065998636186,1.3446065998636185,,3.9503719806671143,,,1780534496.9035785,1780534497.5556498,1780534500.8539505,ml_jamo,hangul_learning_results\subject_s01\voice_trials\trial_voice_1780534500053.wav,,,0.3373098000884056,1.35,"[{""label"": ""ㅎ"", ""probability"": 0.0826923076923077, ""score"": 0.0826923076923077}, {""label"": ""ㅌ"", ""probability"": 0.06153846153846154, ""score"": 0.06153846153846154}, {""label"": ""ㄷ"", ""probability"": 0.051923076923076926, ""score"": 0.051923076923076926}, {""label"": ""ㅈ"", ""probability"": 0.04423076923076923, ""score"": 0.04423076923076923}, {""label"": ""ㄴ"", ""probability"": 0.03653846153846154, ""score"": 0.03653846153846154}]",2026-06-04 09:55:00,0.35,150,250
s01,2026-06-04,4,all_consonants,Session 4: All consonants,52,10,ㅋ,3/350,voice_ml,19,ㄱ|ㄴ|ㄷ|ㅂ|ㅅ|ㅇ|ㅈ|ㅋ|ㄹ|ㅌ|ㅍ|ㅎ|ㅁ|ㅊ|ㄲ|ㄸ|ㅃ|ㅆ|ㅉ,ㅋ,1,1,1.201684300089255,0.851684300089255,,5.8786914348602295,,,1780534501.611964,1780534502.2637208,1780534507.4906554,ml_jamo,hangul_learning_results\subject_s01\voice_trials\trial_voice_1780534504139.wav,,,0.3474902000743896,1.26,"[{""label"": ""ㅎ"", ""probability"": 0.16153846153846152, ""score"": 0.16153846153846152}, {""label"": ""ㄱ"", ""probability"": 0.1076923076923077, ""score"": 0.1076923076923077}, {""label"": ""ㅌ"", ""probability"": 0.07115384615384615, ""score"": 0.07115384615384615}, {""label"": ""ㅈ"", ""probability"": 0.06538461538461539, ""score"": 0.06538461538461539}, {""label"": ""ㄲ"", ""probability"": 0.05, ""score"": 0.05}]",2026-06-04 09:55:07,0.35,150,250
s01,2026-06-04,4,all_consonants,Session 4: All consonants,53,11,ㅅ,4/150,voice_ml,19,ㄱ|ㄴ|ㄷ|ㅂ|ㅅ|ㅇ|ㅈ|ㅋ|ㄹ|ㅌ|ㅍ|ㅎ|ㅁ|ㅊ|ㄲ|ㄸ|ㅃ|ㅆ|ㅉ,ㅅ,0,1,1.1245367000810802,0.9745367000810802,,3.509488582611084,,,1780534507.8871088,1780534508.6038518,1780534511.3965974,ml_jamo,hangul_learning_results\subject_s01\voice_trials\trial_voice_1780534510399.wav,,,0.3429279001429677,1.23,"[{""label"": ""ㄱ"", ""probability"": 0.11346153846153847, ""score"": 0.11346153846153847}, {""label"": ""ㅅ"", ""probability"": 0.08846153846153847, ""score"": 0.08846153846153847}, {""label"": ""ㅎ"", ""probability"": 0.07884615384615384, ""score"": 0.07884615384615384}, {""label"": ""ㅃ"", ""probability"": 0.06730769230769232, ""score"": 0.06730769230769232}, {""label"": ""ㅆ"", ""probability"": 0.057692307692307696, ""score"": 0.057692307692307696}]",2026-06-04 09:55:11,0.15,150,250
s01,2026-06-04,4,all_consonants,Session 4: All consonants,54,12,ㅇ,9/150,voice_ml,19,ㄱ|ㄴ|ㄷ|ㅂ|ㅅ|ㅇ|ㅈ|ㅋ|ㄹ|ㅌ|ㅍ|ㅎ|ㅁ|ㅊ|ㄲ|ㄸ|ㅃ|ㅆ|ㅉ,ㅇ,0,1,1.0102037000469863,0.8602037000469863,,3.423494338989258,,,1780534512.4140663,1780534513.0821822,1780534515.8375607,ml_jamo,hangul_learning_results\subject_s01\voice_trials\trial_voice_1780534514998.wav,,,0.3402784999925643,1.44,"[{""label"": ""ㅇ"", ""probability"": 0.1423076923076923, ""score"": 0.1423076923076923}, {""label"": ""ㄴ"", ""probability"": 0.07500000000000001, ""score"": 0.07500000000000001}, {""label"": ""ㅁ"", ""probability"": 0.06538461538461539, ""score"": 0.06538461538461539}, {""label"": ""ㅂ"", ""probability"": 0.05, ""score"": 0.05}, {""label"": ""ㅍ"", ""probability"": 0.03461538461538462, ""score"": 0.03461538461538462}]",2026-06-04 09:55:15,0.15,150,250
s01,2026-06-04,4,all_consonants,Session 4: All consonants,55,13,ㄸ,1/150.0/150.1/150,voice_ml,19,ㄱ|ㄴ|ㄷ|ㅂ|ㅅ|ㅇ|ㅈ|ㅋ|ㄹ|ㅌ|ㅍ|ㅎ|ㅁ|ㅊ|ㄲ|ㄸ|ㅃ|ㅆ|ㅉ,ㄸ,1,1,1.443387100007385,0.9932871000073851,,5.848786115646362,,,1780534516.4552956,1780534517.0921748,1780534522.3040817,ml_jamo,hangul_learning_results\subject_s01\voice_trials\trial_voice_1780534519381.wav,,,0.34703109995462,1.44,"[{""label"": ""ㅃ"", ""probability"": 0.125, ""score"": 0.125}, {""label"": ""ㄲ"", ""probability"": 0.12115384615384615, ""score"": 0.12115384615384615}, {""label"": ""ㅉ"", ""probability"": 0.06153846153846154, ""score"": 0.06153846153846154}, {""label"": ""ㅎ"", ""probability"": 0.04038461538461539, ""score"": 0.04038461538461539}, {""label"": ""ㄱ"", ""probability"": 0.03653846153846154, ""score"": 0.03653846153846154}]",2026-06-04 09:55:22,0.4501,150,250
s01,2026-06-04,4,all_consonants,Session 4: All consonants,56,14,ㅉ,7/150.0/150.7/150,voice_ml,19,ㄱ|ㄴ|ㄷ|ㅂ|ㅅ|ㅇ|ㅈ|ㅋ|ㄹ|ㅌ|ㅍ|ㅎ|ㅁ|ㅊ|ㄲ|ㄸ|ㅃ|ㅆ|ㅉ,ㅉ,0,1,1.0644843999762088,0.6137843999762088,,7.038565397262573,,,1780534523.3371708,1780534523.9727948,1780534530.3757362,ml_jamo,hangul_learning_results\subject_s01\voice_trials\trial_voice_1780534527216.wav,,,0.3905018998775631,2.76,"[{""label"": ""ㅃ"", ""probability"": 0.1076923076923077, ""score"": 0.1076923076923077}, {""label"": ""ㄲ"", ""probability"": 0.06923076923076923, ""score"": 0.06923076923076923}, {""label"": ""ㅆ"", ""probability"": 0.05961538461538462, ""score"": 0.05961538461538462}, {""label"": ""ㄷ"", ""probability"": 0.04230769230769231, ""score"": 0.04230769230769231}, {""label"": ""ㅉ"", ""probability"": 0.04230769230769231, ""score"": 0.04230769230769231}]",2026-06-04 09:55:30,0.4507,150,250
s01,2026-06-04,4,all_consonants,Session 4: All consonants,57,15,ㅃ,6/150.0/150.6/150,voice_ml,19,ㄱ|ㄴ|ㄷ|ㅂ|ㅅ|ㅇ|ㅈ|ㅋ|ㄹ|ㅌ|ㅍ|ㅎ|ㅁ|ㅊ|ㄲ|ㄸ|ㅃ|ㅆ|ㅉ,ㅃ,0,1,1.8435737998224795,1.3929737998224794,,4.814260959625244,,,1780534530.7250586,1780534531.4390357,1780534535.5393195,ml_jamo,hangul_learning_results\subject_s01\voice_trials\trial_voice_1780534534703.wav,,,0.3409935000818223,2.01,"[{""label"": ""ㅃ"", ""probability"": 0.11153846153846154, ""score"": 0.11153846153846154}, {""label"": ""ㄷ"", ""probability"": 0.07115384615384615, ""score"": 0.07115384615384615}, {""label"": ""ㄱ"", ""probability"": 0.04423076923076923, ""score"": 0.04423076923076923}, {""label"": ""ㅇ"", ""probability"": 0.038461538461538464, ""score"": 0.038461538461538464}, {""label"": ""ㄸ"", ""probability"": 0.03653846153846154, ""score"": 0.03653846153846154}]",2026-06-04 09:55:35,0.4506,150,250
s01,2026-06-04,4,all_consonants,Session 4: All consonants,58,16,ㅊ,7/350,voice_ml,19,ㄱ|ㄴ|ㄷ|ㅂ|ㅅ|ㅇ|ㅈ|ㅋ|ㄹ|ㅌ|ㅍ|ㅎ|ㅁ|ㅊ|ㄲ|ㄸ|ㅃ|ㅆ|ㅉ,ㅊ,0,1,1.7218474999535829,1.3718474999535828,,5.3600804805755615,,,1780534535.983132,1780534536.6194139,1780534541.3432124,ml_jamo,hangul_learning_results\subject_s01\voice_trials\trial_voice_1780534539656.wav,,,0.3706694000866264,1.89,"[{""label"": ""ㅆ"", ""probability"": 0.20576923076923076, ""score"": 0.20576923076923076}, {""label"": ""ㅅ"", ""probability"": 0.10192307692307692, ""score"": 0.10192307692307692}, {""label"": ""ㅉ"", ""probability"": 0.09807692307692309, ""score"": 0.09807692307692309}, {""label"": ""ㄲ"", ""probability"": 0.09230769230769231, ""score"": 0.09230769230769231}, {""label"": ""ㅊ"", ""probability"": 0.06730769230769232, ""score"": 0.06730769230769232}]",2026-06-04 09:55:41,0.35,150,250
s01,2026-06-04,4,all_consonants,Session 4: All consonants,59,17,ㄷ,1/150,voice_ml,19,ㄱ|ㄴ|ㄷ|ㅂ|ㅅ|ㅇ|ㅈ|ㅋ|ㄹ|ㅌ|ㅍ|ㅎ|ㅁ|ㅊ|ㄲ|ㄸ|ㅃ|ㅆ|ㅉ,ㄷ,0,1,0.9323640000075102,0.7823640000075102,,3.186920642852783,,,1780534541.6538978,1780534542.275046,1780534544.8408184,ml_jamo,hangul_learning_results\subject_s01\voice_trials\trial_voice_1780534543832.wav,,,0.3364814999513328,1.17,"[{""label"": ""ㄷ"", ""probability"": 0.07115384615384615, ""score"": 0.07115384615384615}, {""label"": ""ㅁ"", ""probability"": 0.05576923076923077, ""score"": 0.05576923076923077}, {""label"": ""ㅇ"", ""probability"": 0.05384615384615385, ""score"": 0.05384615384615385}, {""label"": ""ㄹ"", ""probability"": 0.038461538461538464, ""score"": 0.038461538461538464}, {""label"": ""ㅎ"", ""probability"": 0.038461538461538464, ""score"": 0.038461538461538464}]",2026-06-04 09:55:44,0.15,150,250
s01,2026-06-04,4,all_consonants,Session 4: All consonants,60,18,ㄴ,2/150,voice_ml,19,ㄱ|ㄴ|ㄷ|ㅂ|ㅅ|ㅇ|ㅈ|ㅋ|ㄹ|ㅌ|ㅍ|ㅎ|ㅁ|ㅊ|ㄲ|ㄸ|ㅃ|ㅆ|ㅉ,ㄴ,0,1,0.8860962998587638,0.7360962998587638,,3.8457653522491455,,,1780534545.2337737,1780534545.8881984,1780534549.079539,ml_jamo,hangul_learning_results\subject_s01\voice_trials\trial_voice_1780534547602.wav,,,0.3414771999232471,1.41,"[{""label"": ""ㅇ"", ""probability"": 0.06346153846153846, ""score"": 0.06346153846153846}, {""label"": ""ㅍ"", ""probability"": 0.06346153846153846, ""score"": 0.06346153846153846}, {""label"": ""ㅌ"", ""probability"": 0.06153846153846154, ""score"": 0.06153846153846154}, {""label"": ""ㄱ"", ""probability"": 0.05384615384615385, ""score"": 0.05384615384615385}, {""label"": ""ㄴ"", ""probability"": 0.05, ""score"": 0.05}]",2026-06-04 09:55:49,0.15,150,250
s01,2026-06-04,4,all_consonants,Session 4: All consonants,61,19,ㄱ,3/150,voice_ml,19,ㄱ|ㄴ|ㄷ|ㅂ|ㅅ|ㅇ|ㅈ|ㅋ|ㄹ|ㅌ|ㅍ|ㅎ|ㅁ|ㅊ|ㄲ|ㄸ|ㅃ|ㅆ|ㅉ,ㄱ,0,1,0.7698629999067634,0.6198629999067634,,2.928091049194336,,,1780534549.3647566,1780534549.9873407,1780534552.2928476,ml_jamo,hangul_learning_results\subject_s01\voice_trials\trial_voice_1780534551437.wav,,,0.33789819991216063,1.26,"[{""label"": ""ㄱ"", ""probability"": 0.12115384615384617, ""score"": 0.12115384615384617}, {""label"": ""ㄷ"", ""probability"": 0.057692307692307696, ""score"": 0.057692307692307696}, {""label"": ""ㄲ"", ""probability"": 0.057692307692307696, ""score"": 0.057692307692307696}, {""label"": ""ㅌ"", ""probability"": 0.057692307692307696, ""score"": 0.057692307692307696}, {""label"": ""ㅎ"", ""probability"": 0.05, ""score"": 0.05}]",2026-06-04 09:55:52,0.15,150,250
s01,2026-06-04,4,all_consonants,Session 4: All consonants,62,20,ㅁ,9/350,voice_ml,19,ㄱ|ㄴ|ㄷ|ㅂ|ㅅ|ㅇ|ㅈ|ㅋ|ㄹ|ㅌ|ㅍ|ㅎ|ㅁ|ㅊ|ㄲ|ㄸ|ㅃ|ㅆ|ㅉ,ㅁ,0,1,1.8351700999774039,1.4851700999774038,,4.525315046310425,,,1780534552.6912596,1780534553.3103073,1780534557.2165747,ml_jamo,hangul_learning_results\subject_s01\voice_trials\trial_voice_1780534556073.wav,,,0.3485121000558138,1.47,"[{""label"": ""ㅇ"", ""probability"": 0.12115384615384615, ""score"": 0.12115384615384615}, {""label"": ""ㅁ"", ""probability"": 0.09423076923076923, ""score"": 0.09423076923076923}, {""label"": ""ㄹ"", ""probability"": 0.07115384615384615, ""score"": 0.07115384615384615}, {""label"": ""ㄴ"", ""probability"": 0.06730769230769232, ""score"": 0.06730769230769232}, {""label"": ""ㅂ"", ""probability"": 0.025, ""score"": 0.025}]",2026-06-04 09:55:57,0.35,150,250
s01,2026-06-04,4,all_consonants,Session 4: All consonants,63,21,ㄱ,3/150,voice_ml,19,ㄱ|ㄴ|ㄷ|ㅂ|ㅅ|ㅇ|ㅈ|ㅋ|ㄹ|ㅌ|ㅍ|ㅎ|ㅁ|ㅊ|ㄲ|ㄸ|ㅃ|ㅆ|ㅉ,ㄱ,0,1,0.7236352998297662,0.5736352998297661,,2.9398863315582275,,,1780534558.236299,1780534558.90287,1780534561.1761854,ml_jamo,hangul_learning_results\subject_s01\voice_trials\trial_voice_1780534560301.wav,,,0.3772829999215901,1.26,"[{""label"": ""ㄱ"", ""probability"": 0.07500000000000001, ""score"": 0.07500000000000001}, {""label"": ""ㄷ"", ""probability"": 0.06153846153846154, ""score"": 0.06153846153846154}, {""label"": ""ㄴ"", ""probability"": 0.057692307692307696, ""score"": 0.057692307692307696}, {""label"": ""ㅎ"", ""probability"": 0.051923076923076926, ""score"": 0.051923076923076926}, {""label"": ""ㅃ"", ""probability"": 0.04230769230769231, ""score"": 0.04230769230769231}]",2026-06-04 09:56:01,0.15,150,250
s01,2026-06-04,4,all_consonants,Session 4: All consonants,64,22,ㅂ,6/150,voice_ml,19,ㄱ|ㄴ|ㄷ|ㅂ|ㅅ|ㅇ|ㅈ|ㅋ|ㄹ|ㅌ|ㅍ|ㅎ|ㅁ|ㅊ|ㄲ|ㄸ|ㅃ|ㅆ|ㅉ,ㅂ,0,1,1.3465283999685198,1.19652839996852,,4.162830352783203,,,1780534561.5100355,1780534562.1785734,1780534565.6728659,ml_jamo,hangul_learning_results\subject_s01\voice_trials\trial_voice_1780534564228.wav,,,0.35730610019527376,1.29,"[{""label"": ""ㄴ"", ""probability"": 0.0903846153846154, ""score"": 0.0903846153846154}, {""label"": ""ㄷ"", ""probability"": 0.07115384615384615, ""score"": 0.07115384615384615}, {""label"": ""ㅇ"", ""probability"": 0.07115384615384615, ""score"": 0.07115384615384615}, {""label"": ""ㅂ"", ""probability"": 0.06538461538461539, ""score"": 0.06538461538461539}, {""label"": ""ㅁ"", ""probability"": 0.04038461538461539, ""score"": 0.04038461538461539}]",2026-06-04 09:56:05,0.15,150,250
s01,2026-06-04,4,all_consonants,Session 4: All consonants,65,23,ㅌ,1/350,voice_ml,19,ㄱ|ㄴ|ㄷ|ㅂ|ㅅ|ㅇ|ㅈ|ㅋ|ㄹ|ㅌ|ㅍ|ㅎ|ㅁ|ㅊ|ㄲ|ㄸ|ㅃ|ㅆ|ㅉ,ㅌ,0,1,1.013131600106135,0.663131600106135,,3.9720566272735596,,,1780534565.991517,1780534566.5942485,1780534569.9635737,ml_jamo,hangul_learning_results\subject_s01\voice_trials\trial_voice_1780534568279.wav,,,0.365205500042066,1.26,"[{""label"": ""ㅌ"", ""probability"": 0.1326923076923077, ""score"": 0.1326923076923077}, {""label"": ""ㅎ"", ""probability"": 0.125, ""score"": 0.125}, {""label"": ""ㅈ"", ""probability"": 0.10384615384615385, ""score"": 0.10384615384615385}, {""label"": ""ㅍ"", ""probability"": 0.07115384615384615, ""score"": 0.07115384615384615}, {""label"": ""ㄷ"", ""probability"": 0.06538461538461539, ""score"": 0.06538461538461539}]",2026-06-04 09:56:09,0.35,150,250
s01,2026-06-04,4,all_consonants,Session 4: All consonants,66,24,ㄹ,2/350,voice_ml,19,ㄱ|ㄴ|ㄷ|ㅂ|ㅅ|ㅇ|ㅈ|ㅋ|ㄹ|ㅌ|ㅍ|ㅎ|ㅁ|ㅊ|ㄲ|ㄸ|ㅃ|ㅆ|ㅉ,ㄹ,0,1,0.7856022999621928,0.4356022999621928,,3.155999183654785,,,1780534570.3312185,1780534570.9822423,1780534573.4872177,ml_jamo,hangul_learning_results\subject_s01\voice_trials\trial_voice_1780534572660.wav,,,0.363944899989292,1.47,"[{""label"": ""ㄹ"", ""probability"": 0.1, ""score"": 0.1}, {""label"": ""ㅇ"", ""probability"": 0.06346153846153846, ""score"": 0.06346153846153846}, {""label"": ""ㄴ"", ""probability"": 0.04230769230769231, ""score"": 0.04230769230769231}, {""label"": ""ㅃ"", ""probability"": 0.04230769230769231, ""score"": 0.04230769230769231}, {""label"": ""ㅁ"", ""probability"": 0.03461538461538462, ""score"": 0.03461538461538462}]",2026-06-04 09:56:13,0.35,150,250
s01,2026-06-04,4,all_consonants,Session 4: All consonants,67,25,ㅍ,6/350,voice_ml,19,ㄱ|ㄴ|ㄷ|ㅂ|ㅅ|ㅇ|ㅈ|ㅋ|ㄹ|ㅌ|ㅍ|ㅎ|ㅁ|ㅊ|ㄲ|ㄸ|ㅃ|ㅆ|ㅉ,ㅍ,0,1,1.933584000216797,1.583584000216797,,5.008883714675903,,,1780534573.854349,1780534574.6347606,1780534578.8632326,ml_jamo,hangul_learning_results\subject_s01\voice_trials\trial_voice_1780534577275.wav,,,0.34536550007760525,1.29,"[{""label"": ""ㅎ"", ""probability"": 0.12692307692307692, ""score"": 0.12692307692307692}, {""label"": ""ㅌ"", ""probability"": 0.11923076923076924, ""score"": 0.11923076923076924}, {""label"": ""ㄱ"", ""probability"": 0.06923076923076923, ""score"": 0.06923076923076923}, {""label"": ""ㅍ"", ""probability"": 0.06538461538461539, ""score"": 0.06538461538461539}, {""label"": ""ㅈ"", ""probability"": 0.057692307692307696, ""score"": 0.057692307692307696}]",2026-06-04 09:56:18,0.35,150,250
s01,2026-06-04,4,all_consonants,Session 4: All consonants,68,26,ㅎ,4/350,voice_ml,19,ㄱ|ㄴ|ㄷ|ㅂ|ㅅ|ㅇ|ㅈ|ㅋ|ㄹ|ㅌ|ㅍ|ㅎ|ㅁ|ㅊ|ㄲ|ㄸ|ㅃ|ㅆ|ㅉ,ㅎ,0,1,1.0153017998673022,0.6653017998673022,,3.228903293609619,,,1780534579.1972592,1780534579.8174267,1780534582.4261625,ml_jamo,hangul_learning_results\subject_s01\voice_trials\trial_voice_1780534581536.wav,,,0.38701240019872785,1.29,"[{""label"": ""ㅎ"", ""probability"": 0.21153846153846156, ""score"": 0.21153846153846156}, {""label"": ""ㅌ"", ""probability"": 0.06730769230769232, ""score"": 0.06730769230769232}, {""label"": ""ㄷ"", ""probability"": 0.057692307692307696, ""score"": 0.057692307692307696}, {""label"": ""ㄴ"", ""probability"": 0.04230769230769231, ""score"": 0.04230769230769231}, {""label"": ""ㄱ"", ""probability"": 0.038461538461538464, ""score"": 0.038461538461538464}]",2026-06-04 09:56:22,0.35,150,250
s01,2026-06-04,4,all_consonants,Session 4: All consonants,69,27,ㅅ,4/150,voice_ml,19,ㄱ|ㄴ|ㄷ|ㅂ|ㅅ|ㅇ|ㅈ|ㅋ|ㄹ|ㅌ|ㅍ|ㅎ|ㅁ|ㅊ|ㄲ|ㄸ|ㅃ|ㅆ|ㅉ,ㅅ,0,1,1.0248589999973774,0.8748589999973774,,3.367396593093872,,,1780534582.90215,1780534583.5397146,1780534586.2695465,ml_jamo,hangul_learning_results\subject_s01\voice_trials\trial_voice_1780534585245.wav,,,0.35900790011510253,1.26,"[{""label"": ""ㅆ"", ""probability"": 0.11153846153846154, ""score"": 0.11153846153846154}, {""label"": ""ㅅ"", ""probability"": 0.1076923076923077, ""score"": 0.1076923076923077}, {""label"": ""ㅎ"", ""probability"": 0.1, ""score"": 0.1}, {""label"": ""ㄱ"", ""probability"": 0.07500000000000001, ""score"": 0.07500000000000001}, {""label"": ""ㅈ"", ""probability"": 0.07500000000000001, ""score"": 0.07500000000000001}]",2026-06-04 09:56:26,0.15,150,250
s01,2026-06-04,4,all_consonants,Session 4: All consonants,70,28,ㅆ,4/150.0/150.4/150,voice_ml,19,ㄱ|ㄴ|ㄷ|ㅂ|ㅅ|ㅇ|ㅈ|ㅋ|ㄹ|ㅌ|ㅍ|ㅎ|ㅁ|ㅊ|ㄲ|ㄸ|ㅃ|ㅆ|ㅉ,ㅆ,0,1,1.0979007999412715,0.6475007999412716,,3.9482243061065674,,,1780534586.6423755,1780534587.2608113,1780534590.5905998,ml_jamo,hangul_learning_results\subject_s01\voice_trials\trial_voice_1780534589201.wav,,,0.35433120001107454,1.41,"[{""label"": ""ㄲ"", ""probability"": 0.0903846153846154, ""score"": 0.0903846153846154}, {""label"": ""ㄱ"", ""probability"": 0.0826923076923077, ""score"": 0.0826923076923077}, {""label"": ""ㅃ"", ""probability"": 0.07307692307692308, ""score"": 0.07307692307692308}, {""label"": ""ㅆ"", ""probability"": 0.06346153846153846, ""score"": 0.06346153846153846}, {""label"": ""ㅈ"", ""probability"": 0.04230769230769231, ""score"": 0.04230769230769231}]",2026-06-04 09:56:30,0.45039999999999997,150,250
s01,2026-06-04,4,all_consonants,Session 4: All consonants,71,29,ㅃ,6/150.0/150.6/150,voice_ml,19,ㄱ|ㄴ|ㄷ|ㅂ|ㅅ|ㅇ|ㅈ|ㅋ|ㄹ|ㅌ|ㅍ|ㅎ|ㅁ|ㅊ|ㄲ|ㄸ|ㅃ|ㅆ|ㅉ,ㅃ,0,1,1.1588447000831366,0.7082447000831366,,3.4782564640045166,,,1780534590.90813,1780534591.5464141,1780534594.3863864,ml_jamo,hangul_learning_results\subject_s01\voice_trials\trial_voice_1780534593499.wav,,,0.3468102999031544,1.38,"[{""label"": ""ㅃ"", ""probability"": 0.08653846153846154, ""score"": 0.08653846153846154}, {""label"": ""ㄲ"", ""probability"": 0.05384615384615385, ""score"": 0.05384615384615385}, {""label"": ""ㄷ"", ""probability"": 0.046153846153846156, ""score"": 0.046153846153846156}, {""label"": ""ㄴ"", ""probability"": 0.04423076923076923, ""score"": 0.04423076923076923}, {""label"": ""ㄱ"", ""probability"": 0.032692307692307694, ""score"": 0.032692307692307694}]",2026-06-04 09:56:34,0.4506,150,250
s01,2026-06-04,4,all_consonants,Session 4: All consonants,72,30,ㄴ,2/150,voice_ml,19,ㄱ|ㄴ|ㄷ|ㅂ|ㅅ|ㅇ|ㅈ|ㅋ|ㄹ|ㅌ|ㅍ|ㅎ|ㅁ|ㅊ|ㄲ|ㄸ|ㅃ|ㅆ|ㅉ,ㄴ,0,1,0.7533030000049621,0.6033030000049621,,3.1178510189056396,,,1780534594.752237,1780534595.3735807,1780534597.870088,ml_jamo,hangul_learning_results\subject_s01\voice_trials\trial_voice_1780534597051.wav,,,0.33918490004725754,1.47,"[{""label"": ""ㄴ"", ""probability"": 0.09615384615384616, ""score"": 0.09615384615384616}, {""label"": ""ㄹ"", ""probability"": 0.08461538461538462, ""score"": 0.08461538461538462}, {""label"": ""ㅇ"", ""probability"": 0.07884615384615384, ""score"": 0.07884615384615384}, {""label"": ""ㅁ"", ""probability"": 0.07307692307692308, ""score"": 0.07307692307692308}, {""label"": ""ㅃ"", ""probability"": 0.019230769230769232, ""score"": 0.019230769230769232}]",2026-06-04 09:56:37,0.15,150,250
s01,2026-06-04,4,all_consonants,Session 4: All consonants,73,31,ㄷ,1/150,voice_ml,19,ㄱ|ㄴ|ㄷ|ㅂ|ㅅ|ㅇ|ㅈ|ㅋ|ㄹ|ㅌ|ㅍ|ㅎ|ㅁ|ㅊ|ㄲ|ㄸ|ㅃ|ㅆ|ㅉ,ㄷ,0,1,0.9057153000030667,0.7557153000030666,,3.092573881149292,,,1780534598.537717,1780534599.1722212,1780534601.630291,ml_jamo,hangul_learning_results\subject_s01\voice_trials\trial_voice_1780534600725.wav,,,0.3348934999667108,1.17,"[{""label"": ""ㄷ"", ""probability"": 0.12307692307692308, ""score"": 0.12307692307692308}, {""label"": ""ㅎ"", ""probability"": 0.0826923076923077, ""score"": 0.0826923076923077}, {""label"": ""ㅌ"", ""probability"": 0.05961538461538462, ""score"": 0.05961538461538462}, {""label"": ""ㅇ"", ""probability"": 0.05576923076923077, ""score"": 0.05576923076923077}, {""label"": ""ㅂ"", ""probability"": 0.04230769230769231, ""score"": 0.04230769230769231}]",2026-06-04 09:56:41,0.15,150,250
s01,2026-06-04,4,all_consonants,Session 4: All consonants,74,32,ㅉ,7/150.0/150.7/150,voice_ml,19,ㄱ|ㄴ|ㄷ|ㅂ|ㅅ|ㅇ|ㅈ|ㅋ|ㄹ|ㅌ|ㅍ|ㅎ|ㅁ|ㅊ|ㄲ|ㄸ|ㅃ|ㅆ|ㅉ,ㅉ,0,1,1.0838959000539035,0.6331959000539035,,3.599142551422119,,,1780534602.0347624,1780534602.6693244,1780534605.633905,ml_jamo,hangul_learning_results\subject_s01\voice_trials\trial_voice_1780534604805.wav,,,0.3578369999304414,1.62,"[{""label"": ""ㅉ"", ""probability"": 0.12692307692307692, ""score"": 0.12692307692307692}, {""label"": ""ㅃ"", ""probability"": 0.11923076923076924, ""score"": 0.11923076923076924}, {""label"": ""ㄲ"", ""probability"": 0.06923076923076923, ""score"": 0.06923076923076923}, {""label"": ""ㅈ"", ""probability"": 0.051923076923076926, ""score"": 0.051923076923076926}, {""label"": ""ㅆ"", ""probability"": 0.04807692307692308, ""score"": 0.04807692307692308}]",2026-06-04 09:56:45,0.4507,150,250
s01,2026-06-04,4,all_consonants,Session 4: All consonants,75,33,ㅊ,7/350,voice_ml,19,ㄱ|ㄴ|ㄷ|ㅂ|ㅅ|ㅇ|ㅈ|ㅋ|ㄹ|ㅌ|ㅍ|ㅎ|ㅁ|ㅊ|ㄲ|ㄸ|ㅃ|ㅆ|ㅉ,ㅊ,0,1,0.935297799995169,0.5852977999951691,,3.243809461593628,,,1780534605.9870293,1780534606.6327,1780534609.2308388,ml_jamo,hangul_learning_results\subject_s01\voice_trials\trial_voice_1780534608361.wav,,,0.33243470010347664,1.38,"[{""label"": ""ㅊ"", ""probability"": 0.12115384615384615, ""score"": 0.12115384615384615}, {""label"": ""ㅈ"", ""probability"": 0.11538461538461539, ""score"": 0.11538461538461539}, {""label"": ""ㅅ"", ""probability"": 0.10961538461538461, ""score"": 0.10961538461538461}, {""label"": ""ㅋ"", ""probability"": 0.09615384615384616, ""score"": 0.09615384615384616}, {""label"": ""ㅎ"", ""probability"": 0.09230769230769231, ""score"": 0.09230769230769231}]",2026-06-04 09:56:49,0.35,150,250
s01,2026-06-04,4,all_consonants,Session 4: All consonants,76,34,ㅇ,9/150,voice_ml,19,ㄱ|ㄴ|ㄷ|ㅂ|ㅅ|ㅇ|ㅈ|ㅋ|ㄹ|ㅌ|ㅍ|ㅎ|ㅁ|ㅊ|ㄲ|ㄸ|ㅃ|ㅆ|ㅉ,ㅇ,0,1,0.8750625001266599,0.7250625001266598,,3.119131088256836,,,1780534609.60817,1780534610.2553568,1780534612.7273011,ml_jamo,hangul_learning_results\subject_s01\voice_trials\trial_voice_1780534611927.wav,,,0.3277865999843925,1.38,"[{""label"": ""ㅇ"", ""probability"": 0.125, ""score"": 0.125}, {""label"": ""ㄴ"", ""probability"": 0.1, ""score"": 0.1}, {""label"": ""ㅁ"", ""probability"": 0.08653846153846154, ""score"": 0.08653846153846154}, {""label"": ""ㄹ"", ""probability"": 0.04423076923076923, ""score"": 0.04423076923076923}, {""label"": ""ㅂ"", ""probability"": 0.03461538461538462, ""score"": 0.03461538461538462}]",2026-06-04 09:56:52,0.15,150,250
s01,2026-06-04,4,all_consonants,Session 4: All consonants,77,35,ㄸ,1/150.0/150.1/150,voice_ml,19,ㄱ|ㄴ|ㄷ|ㅂ|ㅅ|ㅇ|ㅈ|ㅋ|ㄹ|ㅌ|ㅍ|ㅎ|ㅁ|ㅊ|ㄲ|ㄸ|ㅃ|ㅆ|ㅉ,ㄸ,1,1,0.8754147998988628,0.42531479989886284,,5.192331314086914,,,1780534613.3782754,1780534614.0421584,1780534618.5706067,ml_jamo,hangul_learning_results\subject_s01\voice_trials\trial_voice_1780534615745.wav,,,0.38926519989036024,1.41,"[{""label"": ""ㅃ"", ""probability"": 0.13076923076923078, ""score"": 0.13076923076923078}, {""label"": ""ㄲ"", ""probability"": 0.06730769230769232, ""score"": 0.06730769230769232}, {""label"": ""ㄷ"", ""probability"": 0.05576923076923077, ""score"": 0.05576923076923077}, {""label"": ""ㄴ"", ""probability"": 0.04807692307692308, ""score"": 0.04807692307692308}, {""label"": ""ㄹ"", ""probability"": 0.03653846153846154, ""score"": 0.03653846153846154}]",2026-06-04 09:56:58,0.4501,150,250
s01,2026-06-04,4,all_consonants,Session 4: All consonants,78,36,ㄲ,3/150.0/150.3/150,voice_ml,19,ㄱ|ㄴ|ㄷ|ㅂ|ㅅ|ㅇ|ㅈ|ㅋ|ㄹ|ㅌ|ㅍ|ㅎ|ㅁ|ㅊ|ㄲ|ㄸ|ㅃ|ㅆ|ㅉ,ㄲ,0,1,0.8930392998736352,0.44273929987363514,,3.2192916870117188,,,1780534619.54354,1780534620.1949608,1780534622.7628317,ml_jamo,hangul_learning_results\subject_s01\voice_trials\trial_voice_1780534621909.wav,,,0.33299980009905994,1.38,"[{""label"": ""ㄲ"", ""probability"": 0.10961538461538461, ""score"": 0.10961538461538461}, {""label"": ""ㅃ"", ""probability"": 0.04807692307692308, ""score"": 0.04807692307692308}, {""label"": ""ㄱ"", ""probability"": 0.03461538461538462, ""score"": 0.03461538461538462}, {""label"": ""ㅆ"", ""probability"": 0.028846153846153848, ""score"": 0.028846153846153848}, {""label"": ""ㅁ"", ""probability"": 0.021153846153846155, ""score"": 0.021153846153846155}]",2026-06-04 09:57:02,0.45030000000000003,150,250
s01,2026-06-04,4,all_consonants,Session 4: All consonants,79,37,ㅈ,7/150,voice_ml,19,ㄱ|ㄴ|ㄷ|ㅂ|ㅅ|ㅇ|ㅈ|ㅋ|ㄹ|ㅌ|ㅍ|ㅎ|ㅁ|ㅊ|ㄲ|ㄸ|ㅃ|ㅆ|ㅉ,ㅈ,0,1,1.4138212001416832,1.2638212001416833,,3.625237226486206,,,1780534623.479982,1780534624.1492329,1780534627.1052191,ml_jamo,hangul_learning_results\subject_s01\voice_trials\trial_voice_1780534626325.wav,,,0.34764130017720163,1.29,"[{""label"": ""ㅈ"", ""probability"": 0.18653846153846154, ""score"": 0.18653846153846154}, {""label"": ""ㄱ"", ""probability"": 0.07500000000000001, ""score"": 0.07500000000000001}, {""label"": ""ㅌ"", ""probability"": 0.06538461538461539, ""score"": 0.06538461538461539}, {""label"": ""ㅍ"", ""probability"": 0.06538461538461539, ""score"": 0.06538461538461539}, {""label"": ""ㅊ"", ""probability"": 0.05576923076923077, ""score"": 0.05576923076923077}]",2026-06-04 09:57:07,0.15,150,250
s01,2026-06-04,4,all_consonants,Session 4: All consonants,80,38,ㅋ,3/350,voice_ml,19,ㄱ|ㄴ|ㄷ|ㅂ|ㅅ|ㅇ|ㅈ|ㅋ|ㄹ|ㅌ|ㅍ|ㅎ|ㅁ|ㅊ|ㄲ|ㄸ|ㅃ|ㅆ|ㅉ,ㅋ,1,1,0.9890105000231415,0.6390105000231415,,5.1509621143341064,,,1780534627.468513,1780534628.0876107,1780534632.6194751,ml_jamo,hangul_learning_results\subject_s01\voice_trials\trial_voice_1780534629903.wav,,,0.37792709982022643,1.35,"[{""label"": ""ㅎ"", ""probability"": 0.11153846153846154, ""score"": 0.11153846153846154}, {""label"": ""ㅃ"", ""probability"": 0.06153846153846154, ""score"": 0.06153846153846154}, {""label"": ""ㅈ"", ""probability"": 0.05, ""score"": 0.05}, {""label"": ""ㅉ"", ""probability"": 0.04423076923076923, ""score"": 0.04423076923076923}, {""label"": ""ㅆ"", ""probability"": 0.04230769230769231, ""score"": 0.04230769230769231}]",2026-06-04 09:57:12,0.35,150,250
s01,2026-06-04,5,basic_vowels,Session 5: Basic vowels,81,1,ㅡ,5/350,voice_ml,6,ㅣ|ㅡ|ㅏ|ㅓ|ㅗ|ㅜ,ㅡ,0,1,1.2062248999718577,0.8562248999718577,,4.090686321258545,,,1780534634.6592488,1780534635.7710536,1780534638.7499352,ml_jamo,hangul_learning_results\subject_s01\voice_trials\trial_voice_1780534637792.wav,,,0.3645971000660211,1.35,"[{""label"": ""ㅡ"", ""probability"": 0.08653846153846154, ""score"": 0.08653846153846154}, {""label"": ""ㅜ"", ""probability"": 0.04807692307692308, ""score"": 0.04807692307692308}, {""label"": ""ㅗ"", ""probability"": 0.03076923076923077, ""score"": 0.03076923076923077}, {""label"": ""ㅣ"", ""probability"": 0.021153846153846155, ""score"": 0.021153846153846155}, {""label"": ""ㅏ"", ""probability"": 0.01730769230769231, ""score"": 0.01730769230769231}]",2026-06-04 09:57:18,0.35,150,250
s01,2026-06-04,5,basic_vowels,Session 5: Basic vowels,82,2,ㅗ,"5/150.5/d,2/i/100.2/150",voice_ml,6,ㅣ|ㅡ|ㅏ|ㅓ|ㅗ|ㅜ,ㅗ,0,1,0.9646421000361443,0.5639421000361442,,3.4458491802215576,,,1780534639.4002779,1780534640.052165,1780534642.846127,ml_jamo,hangul_learning_results\subject_s01\voice_trials\trial_voice_1780534641780.wav,,,0.35847980016842484,1.35,"[{""label"": ""ㅜ"", ""probability"": 0.0826923076923077, ""score"": 0.0826923076923077}, {""label"": ""ㅗ"", ""probability"": 0.06153846153846154, ""score"": 0.06153846153846154}, {""label"": ""ㅏ"", ""probability"": 0.046153846153846156, ""score"": 0.046153846153846156}, {""label"": ""ㅓ"", ""probability"": 0.026923076923076925, ""score"": 0.026923076923076925}, {""label"": ""ㅡ"", ""probability"": 0.021153846153846155, ""score"": 0.021153846153846155}]",2026-06-04 09:57:22,0.4007,150,250
s01,2026-06-04,5,basic_vowels,Session 5: Basic vowels,83,3,ㅓ,"5/150.5/d,6/i/100.6/150",voice_ml,6,ㅣ|ㅡ|ㅏ|ㅓ|ㅗ|ㅜ,ㅓ,0,1,1.05555639998056,0.6544563999805599,,3.422870635986328,,,1780534643.491652,1780534644.1433418,1780534646.9145226,ml_jamo,hangul_learning_results\subject_s01\voice_trials\trial_voice_1780534646077.wav,,,0.3417776001151651,1.47,"[{""label"": ""ㅓ"", ""probability"": 0.20576923076923076, ""score"": 0.20576923076923076}, {""label"": ""ㅏ"", ""probability"": 0.17115384615384616, ""score"": 0.17115384615384616}, {""label"": ""ㅜ"", ""probability"": 0.07884615384615384, ""score"": 0.07884615384615384}, {""label"": ""ㅗ"", ""probability"": 0.07307692307692308, ""score"": 0.07307692307692308}, {""label"": ""ㅣ"", ""probability"": 0.011538461538461539, ""score"": 0.011538461538461539}]",2026-06-04 09:57:26,0.4011,150,250
s01,2026-06-04,5,basic_vowels,Session 5: Basic vowels,84,4,ㅣ,5/150,voice_ml,6,ㅣ|ㅡ|ㅏ|ㅓ|ㅗ|ㅜ,ㅣ,0,1,1.1078141999896616,0.9578141999896616,,3.2705204486846924,,,1780534647.3601844,1780534647.981173,1780534650.6307049,ml_jamo,hangul_learning_results\subject_s01\voice_trials\trial_voice_1780534649847.wav,,,0.34678720007650554,1.32,"[{""label"": ""ㅣ"", ""probability"": 0.09807692307692309, ""score"": 0.09807692307692309}, {""label"": ""ㅜ"", ""probability"": 0.032692307692307694, ""score"": 0.032692307692307694}, {""label"": ""ㅡ"", ""probability"": 0.023076923076923078, ""score"": 0.023076923076923078}, {""label"": ""ㅗ"", ""probability"": 0.015384615384615385, ""score"": 0.015384615384615385}, {""label"": ""ㅏ"", ""probability"": 0.007692307692307693, ""score"": 0.007692307692307693}]",2026-06-04 09:57:30,0.15,150,250
s01,2026-06-04,5,basic_vowels,Session 5: Basic vowels,85,5,ㅜ,"5/150.5/d,8/i/100.8/150",voice_ml,6,ㅣ|ㅡ|ㅏ|ㅓ|ㅗ|ㅜ,ㅜ,0,1,0.9021309998352081,0.5008309998352081,,3.2307424545288086,,,1780534650.9967968,1780534651.6478667,1780534654.2275393,ml_jamo,hangul_learning_results\subject_s01\voice_trials\trial_voice_1780534653348.wav,,,0.3520297999493778,1.38,"[{""label"": ""ㅜ"", ""probability"": 0.06538461538461539, ""score"": 0.06538461538461539}, {""label"": ""ㅣ"", ""probability"": 0.03076923076923077, ""score"": 0.03076923076923077}, {""label"": ""ㅗ"", ""probability"": 0.026923076923076925, ""score"": 0.026923076923076925}, {""label"": ""ㅏ"", ""probability"": 0.025, ""score"": 0.025}, {""label"": ""ㅓ"", ""probability"": 0.011538461538461539, ""score"": 0.011538461538461539}]",2026-06-04 09:57:34,0.4013,150,250
s01,2026-06-04,5,basic_vowels,Session 5: Basic vowels,86,6,ㅏ,"5/150.5/d,4/i/100.4/150",voice_ml,6,ㅣ|ㅡ|ㅏ|ㅓ|ㅗ|ㅜ,ㅏ,0,1,0.862914799945429,0.462014799945429,,3.3705341815948486,,,1780534654.5937853,1780534655.2141201,1780534657.9643195,ml_jamo,hangul_learning_results\subject_s01\voice_trials\trial_voice_1780534656899.wav,,,0.3396179999690503,1.41,"[{""label"": ""ㅏ"", ""probability"": 0.24615384615384617, ""score"": 0.24615384615384617}, {""label"": ""ㅓ"", ""probability"": 0.07692307692307693, ""score"": 0.07692307692307693}, {""label"": ""ㅗ"", ""probability"": 0.04230769230769231, ""score"": 0.04230769230769231}, {""label"": ""ㅜ"", ""probability"": 0.03653846153846154, ""score"": 0.03653846153846154}, {""label"": ""ㅣ"", ""probability"": 0.015384615384615385, ""score"": 0.015384615384615385}]",2026-06-04 09:57:37,0.4009,150,250
s01,2026-06-04,5,basic_vowels,Session 5: Basic vowels,87,7,ㅜ,"5/150.5/d,8/i/100.8/150",voice_ml,6,ㅣ|ㅡ|ㅏ|ㅓ|ㅗ|ㅜ,ㅜ,0,1,0.8751020999625325,0.47380209996253253,,3.1892762184143066,,,1780534658.2994368,1780534658.9528933,1780534661.488713,ml_jamo,hangul_learning_results\subject_s01\voice_trials\trial_voice_1780534660614.wav,,,0.34129499993287027,1.38,"[{""label"": ""ㅜ"", ""probability"": 0.07500000000000001, ""score"": 0.07500000000000001}, {""label"": ""ㅣ"", ""probability"": 0.05961538461538462, ""score"": 0.05961538461538462}, {""label"": ""ㅏ"", ""probability"": 0.019230769230769232, ""score"": 0.019230769230769232}, {""label"": ""ㅗ"", ""probability"": 0.01730769230769231, ""score"": 0.01730769230769231}, {""label"": ""ㅓ"", ""probability"": 0.011538461538461539, ""score"": 0.011538461538461539}]",2026-06-04 09:57:41,0.4013,150,250
s01,2026-06-04,5,basic_vowels,Session 5: Basic vowels,88,8,ㅡ,5/350,voice_ml,6,ㅣ|ㅡ|ㅏ|ㅓ|ㅗ|ㅜ,ㅡ,0,1,1.4518069000914693,1.1018069000914692,,4.074361324310303,,,1780534661.8697891,1780534662.5218513,1780534665.9441504,ml_jamo,hangul_learning_results\subject_s01\voice_trials\trial_voice_1780534664805.wav,,,0.3643985998351127,1.38,"[{""label"": ""ㅜ"", ""probability"": 0.06346153846153846, ""score"": 0.06346153846153846}, {""label"": ""ㅡ"", ""probability"": 0.046153846153846156, ""score"": 0.046153846153846156}, {""label"": ""ㅗ"", ""probability"": 0.03653846153846154, ""score"": 0.03653846153846154}, {""label"": ""ㅏ"", ""probability"": 0.032692307692307694, ""score"": 0.032692307692307694}, {""label"": ""ㅣ"", ""probability"": 0.01730769230769231, ""score"": 0.01730769230769231}]",2026-06-04 09:57:45,0.35,150,250
s01,2026-06-04,5,basic_vowels,Session 5: Basic vowels,89,9,ㅏ,"5/150.5/d,4/i/100.4/150",voice_ml,6,ㅣ|ㅡ|ㅏ|ㅓ|ㅗ|ㅜ,ㅏ,0,1,0.8978295000270009,0.4969295000270009,,3.170416831970215,,,1780534666.306179,1780534666.9899058,1780534669.4765959,ml_jamo,hangul_learning_results\subject_s01\voice_trials\trial_voice_1780534668715.wav,,,0.3508252000901848,1.41,"[{""label"": ""ㅏ"", ""probability"": 0.125, ""score"": 0.125}, {""label"": ""ㅓ"", ""probability"": 0.07115384615384615, ""score"": 0.07115384615384615}, {""label"": ""ㅗ"", ""probability"": 0.023076923076923078, ""score"": 0.023076923076923078}, {""label"": ""ㅜ"", ""probability"": 0.023076923076923078, ""score"": 0.023076923076923078}, {""label"": ""ㅡ"", ""probability"": 0.01730769230769231, ""score"": 0.01730769230769231}]",2026-06-04 09:57:49,0.4009,150,250
s01,2026-06-04,5,basic_vowels,Session 5: Basic vowels,90,10,ㅣ,5/150,voice_ml,6,ㅣ|ㅡ|ㅏ|ㅓ|ㅗ|ㅜ,ㅣ,0,1,0.9408863000571728,0.7908863000571728,,3.2789554595947266,,,1780534669.8406174,1780534670.478449,1780534673.1195729,ml_jamo,hangul_learning_results\subject_s01\voice_trials\trial_voice_1780534672150.wav,,,0.33801950002089143,1.32,"[{""label"": ""ㅜ"", ""probability"": 0.05, ""score"": 0.05}, {""label"": ""ㅣ"", ""probability"": 0.046153846153846156, ""score"": 0.046153846153846156}, {""label"": ""ㅡ"", ""probability"": 0.032692307692307694, ""score"": 0.032692307692307694}, {""label"": ""ㅗ"", ""probability"": 0.025, ""score"": 0.025}, {""label"": ""ㅏ"", ""probability"": 0.007692307692307693, ""score"": 0.007692307692307693}]",2026-06-04 09:57:53,0.15,150,250
s01,2026-06-04,5,basic_vowels,Session 5: Basic vowels,91,11,ㅗ,"5/150.5/d,2/i/100.2/150",voice_ml,6,ㅣ|ㅡ|ㅏ|ㅓ|ㅗ|ㅜ,ㅗ,0,1,0.8469632999040186,0.44626329990401864,,3.6994235515594482,,,1780534673.4860213,1780534674.1361802,1780534677.1854448,ml_jamo,hangul_learning_results\subject_s01\voice_trials\trial_voice_1780534675837.wav,,,0.3451729998923838,1.38,"[{""label"": ""ㅜ"", ""probability"": 0.038461538461538464, ""score"": 0.038461538461538464}, {""label"": ""ㅣ"", ""probability"": 0.032692307692307694, ""score"": 0.032692307692307694}, {""label"": ""ㅗ"", ""probability"": 0.025, ""score"": 0.025}, {""label"": ""ㅏ"", ""probability"": 0.021153846153846155, ""score"": 0.021153846153846155}, {""label"": ""ㅓ"", ""probability"": 0.01730769230769231, ""score"": 0.01730769230769231}]",2026-06-04 09:57:57,0.4007,150,250
s01,2026-06-04,5,basic_vowels,Session 5: Basic vowels,92,12,ㅓ,"5/150.5/d,6/i/100.6/150",voice_ml,6,ㅣ|ㅡ|ㅏ|ㅓ|ㅗ|ㅜ,ㅓ,0,1,0.8731567000504583,0.4720567000504583,,3.5368127822875977,,,1780534677.5354347,1780534678.1742792,1780534681.0722475,ml_jamo,hangul_learning_results\subject_s01\voice_trials\trial_voice_1780534679878.wav,,,0.45299359993077815,1.41,"[{""label"": ""ㅏ"", ""probability"": 0.12884615384615386, ""score"": 0.12884615384615386}, {""label"": ""ㅓ"", ""probability"": 0.11730769230769231, ""score"": 0.11730769230769231}, {""label"": ""ㅗ"", ""probability"": 0.023076923076923078, ""score"": 0.023076923076923078}, {""label"": ""ㅜ"", ""probability"": 0.021153846153846155, ""score"": 0.021153846153846155}, {""label"": ""ㅣ"", ""probability"": 0.007692307692307693, ""score"": 0.007692307692307693}]",2026-06-04 09:58:01,0.4011,150,250
s01,2026-06-04,6,double_vowels,Session 6: Double vowels,93,1,ㅢ,5/350.0/150.5/150,voice_ml,5,ㅢ|ㅑ|ㅕ|ㅛ|ㅠ,ㅢ,0,1,1.6006634999066591,0.9501634999066592,,4.480971097946167,,,1780534684.0184362,1780534685.112141,1780534688.4994073,ml_jamo,hangul_learning_results\subject_s01\voice_trials\trial_voice_1780534687610.wav,,,0.3422426001634449,1.44,"[{""label"": ""ㅢ"", ""probability"": 0.05, ""score"": 0.05}, {""label"": ""ㅛ"", ""probability"": 0.026923076923076925, ""score"": 0.026923076923076925}, {""label"": ""ㅠ"", ""probability"": 0.023076923076923078, ""score"": 0.023076923076923078}, {""label"": ""ㅑ"", ""probability"": 0.01730769230769231, ""score"": 0.01730769230769231}, {""label"": ""ㅕ"", ""probability"": 0.0057692307692307696, ""score"": 0.0057692307692307696}]",2026-06-04 09:58:08,0.6505,150,250
s01,2026-06-04,6,double_vowels,Session 6: Double vowels,94,2,ㅠ,"5/150.5/d,8/i/100.8/150.0/150.5/150.5/d,8/i/100.8/150",voice_ml,5,ㅢ|ㅑ|ㅕ|ㅛ|ㅠ,ㅠ,0,1,1.4062051000073552,0.45310510000735527,,3.7904789447784424,,,1780534688.8977108,1780534689.5504136,1780534692.6881897,ml_jamo,hangul_learning_results\subject_s01\voice_trials\trial_voice_1780534691860.wav,,,0.32990540005266666,1.47,"[{""label"": ""ㅠ"", ""probability"": 0.06346153846153846, ""score"": 0.06346153846153846}, {""label"": ""ㅑ"", ""probability"": 0.05576923076923077, ""score"": 0.05576923076923077}, {""label"": ""ㅕ"", ""probability"": 0.04423076923076923, ""score"": 0.04423076923076923}, {""label"": ""ㅛ"", ""probability"": 0.03461538461538462, ""score"": 0.03461538461538462}, {""label"": ""ㅢ"", ""probability"": 0.011538461538461539, ""score"": 0.011538461538461539}]",2026-06-04 09:58:12,0.9531,150,250
s01,2026-06-04,6,double_vowels,Session 6: Double vowels,95,3,ㅛ,"5/150.5/d,2/i/100.2/150.0/150.5/150.5/d,2/i/100.2/150",voice_ml,5,ㅢ|ㅑ|ㅕ|ㅛ|ㅠ,ㅛ,0,1,1.2679582999553531,0.31605829995535306,,3.6127638816833496,,,1780534693.029268,1780534693.6702518,1780534696.642032,ml_jamo,hangul_learning_results\subject_s01\voice_trials\trial_voice_1780534695800.wav,,,0.3537650001235306,1.44,"[{""label"": ""ㅛ"", ""probability"": 0.06153846153846154, ""score"": 0.06153846153846154}, {""label"": ""ㅑ"", ""probability"": 0.04807692307692308, ""score"": 0.04807692307692308}, {""label"": ""ㅕ"", ""probability"": 0.04807692307692308, ""score"": 0.04807692307692308}, {""label"": ""ㅠ"", ""probability"": 0.025, ""score"": 0.025}, {""label"": ""ㅢ"", ""probability"": 0.0057692307692307696, ""score"": 0.0057692307692307696}]",2026-06-04 09:58:16,0.9519000000000001,150,250
s01,2026-06-04,6,double_vowels,Session 6: Double vowels,96,4,ㅕ,"5/150.5/d,6/i/100.6/150.0/150.5/150.5/d,6/i/100.6/150",voice_ml,5,ㅢ|ㅑ|ㅕ|ㅛ|ㅠ,ㅕ,0,1,1.2460894000250846,0.2933894000250846,,3.7049295902252197,,,1780534697.0221312,1780534697.6745336,1780534700.7270608,ml_jamo,hangul_learning_results\subject_s01\voice_trials\trial_voice_1780534699837.wav,,,0.3512710998766124,1.5,"[{""label"": ""ㅕ"", ""probability"": 0.10192307692307692, ""score"": 0.10192307692307692}, {""label"": ""ㅑ"", ""probability"": 0.08846153846153847, ""score"": 0.08846153846153847}, {""label"": ""ㅛ"", ""probability"": 0.032692307692307694, ""score"": 0.032692307692307694}, {""label"": ""ㅠ"", ""probability"": 0.025, ""score"": 0.025}, {""label"": ""ㅢ"", ""probability"": 0.0057692307692307696, ""score"": 0.0057692307692307696}]",2026-06-04 09:58:20,0.9527,150,250
s01,2026-06-04,6,double_vowels,Session 6: Double vowels,97,5,ㅑ,"5/150.5/d,4/i/100.4/150.0/150.5/150.5/d,4/i/100.4/150",voice_ml,5,ㅢ|ㅑ|ㅕ|ㅛ|ㅠ,ㅑ,0,1,1.2382889001164585,0.2859889001164586,,4.143333435058594,,,1780534701.2970126,1780534701.9496064,1780534705.440346,ml_jamo,hangul_learning_results\subject_s01\voice_trials\trial_voice_1780534704082.wav,,,0.35106270015239716,1.47,"[{""label"": ""ㅑ"", ""probability"": 0.3076923076923077, ""score"": 0.3076923076923077}, {""label"": ""ㅕ"", ""probability"": 0.13846153846153847, ""score"": 0.13846153846153847}, {""label"": ""ㅛ"", ""probability"": 0.019230769230769232, ""score"": 0.019230769230769232}, {""label"": ""ㅠ"", ""probability"": 0.015384615384615385, ""score"": 0.015384615384615385}, {""label"": ""ㅢ"", ""probability"": 0.0019230769230769232, ""score"": 0.0019230769230769232}]",2026-06-04 09:58:25,0.9522999999999999,150,250
s01,2026-06-04,6,double_vowels,Session 6: Double vowels,98,6,ㅠ,"5/150.5/d,8/i/100.8/150.0/150.5/150.5/d,8/i/100.8/150",voice_ml,5,ㅢ|ㅑ|ㅕ|ㅛ|ㅠ,ㅠ,0,1,1.2730771000497043,0.31997710004970437,,3.513458013534546,,,1780534705.8901405,1780534706.5099316,1780534709.4035985,ml_jamo,hangul_learning_results\subject_s01\voice_trials\trial_voice_1780534708549.wav,,,0.3500101000536233,1.35,"[{""label"": ""ㅠ"", ""probability"": 0.07115384615384615, ""score"": 0.07115384615384615}, {""label"": ""ㅑ"", ""probability"": 0.046153846153846156, ""score"": 0.046153846153846156}, {""label"": ""ㅕ"", ""probability"": 0.03653846153846154, ""score"": 0.03653846153846154}, {""label"": ""ㅛ"", ""probability"": 0.032692307692307694, ""score"": 0.032692307692307694}, {""label"": ""ㅢ"", ""probability"": 0.011538461538461539, ""score"": 0.011538461538461539}]",2026-06-04 09:58:29,0.9531,150,250
s01,2026-06-04,6,double_vowels,Session 6: Double vowels,99,7,ㅢ,5/350.0/150.5/150,voice_ml,5,ㅢ|ㅑ|ㅕ|ㅛ|ㅠ,ㅢ,0,1,1.2124182998668402,0.5619182998668403,,4.184968709945679,,,1780534709.770255,1780534710.406823,1780534713.9552238,ml_jamo,hangul_learning_results\subject_s01\voice_trials\trial_voice_1780534712439.wav,,,0.33908399986103177,1.38,"[{""label"": ""ㅠ"", ""probability"": 0.04038461538461539, ""score"": 0.04038461538461539}, {""label"": ""ㅑ"", ""probability"": 0.023076923076923078, ""score"": 0.023076923076923078}, {""label"": ""ㅕ"", ""probability"": 0.01730769230769231, ""score"": 0.01730769230769231}, {""label"": ""ㅢ"", ""probability"": 0.01730769230769231, ""score"": 0.01730769230769231}, {""label"": ""ㅛ"", ""probability"": 0.015384615384615385, ""score"": 0.015384615384615385}]",2026-06-04 09:58:33,0.6505,150,250
s01,2026-06-04,6,double_vowels,Session 6: Double vowels,100,8,ㅑ,"5/150.5/d,4/i/100.4/150.0/150.5/150.5/d,4/i/100.4/150",voice_ml,5,ㅢ|ㅑ|ㅕ|ㅛ|ㅠ,ㅑ,0,1,1.233059300109744,0.28075930010974415,,3.600811719894409,,,1780534714.3142872,1780534714.9492838,1780534717.915099,ml_jamo,hangul_learning_results\subject_s01\voice_trials\trial_voice_1780534717061.wav,,,0.3345302001107484,1.47,"[{""label"": ""ㅑ"", ""probability"": 0.25, ""score"": 0.25}, {""label"": ""ㅕ"", ""probability"": 0.05576923076923077, ""score"": 0.05576923076923077}, {""label"": ""ㅛ"", ""probability"": 0.025, ""score"": 0.025}, {""label"": ""ㅠ"", ""probability"": 0.011538461538461539, ""score"": 0.011538461538461539}, {""label"": ""ㅢ"", ""probability"": 0.0038461538461538464, ""score"": 0.0038461538461538464}]",2026-06-04 09:58:37,0.9522999999999999,150,250
s01,2026-06-04,6,double_vowels,Session 6: Double vowels,101,9,ㅕ,"5/150.5/d,6/i/100.6/150.0/150.5/150.5/d,6/i/100.6/150",voice_ml,5,ㅢ|ㅑ|ㅕ|ㅛ|ㅠ,ㅕ,0,1,1.2378059001639485,0.28510590016394854,,3.954927921295166,,,1780534718.475147,1780534719.378003,1780534722.430075,ml_jamo,hangul_learning_results\subject_s01\voice_trials\trial_voice_1780534721593.wav,,,0.3428911999799311,1.5,"[{""label"": ""ㅕ"", ""probability"": 0.1, ""score"": 0.1}, {""label"": ""ㅑ"", ""probability"": 0.057692307692307696, ""score"": 0.057692307692307696}, {""label"": ""ㅛ"", ""probability"": 0.023076923076923078, ""score"": 0.023076923076923078}, {""label"": ""ㅠ"", ""probability"": 0.019230769230769232, ""score"": 0.019230769230769232}, {""label"": ""ㅢ"", ""probability"": 0.019230769230769232, ""score"": 0.019230769230769232}]",2026-06-04 09:58:42,0.9527,150,250
s01,2026-06-04,6,double_vowels,Session 6: Double vowels,102,10,ㅛ,"5/150.5/d,2/i/100.2/150.0/150.5/150.5/d,2/i/100.2/150",voice_ml,5,ㅢ|ㅑ|ㅕ|ㅛ|ㅠ,ㅛ,0,1,1.2503289000596851,0.29842890005968503,,3.7989683151245117,,,1780534722.8433032,1780534723.4797642,1780534726.6422715,ml_jamo,hangul_learning_results\subject_s01\voice_trials\trial_voice_1780534725815.wav,,,0.3449913999065757,1.68,"[{""label"": ""ㅛ"", ""probability"": 0.05576923076923077, ""score"": 0.05576923076923077}, {""label"": ""ㅠ"", ""probability"": 0.04807692307692308, ""score"": 0.04807692307692308}, {""label"": ""ㅕ"", ""probability"": 0.04038461538461539, ""score"": 0.04038461538461539}, {""label"": ""ㅑ"", ""probability"": 0.03653846153846154, ""score"": 0.03653846153846154}, {""label"": ""ㅢ"", ""probability"": 0.0057692307692307696, ""score"": 0.0057692307692307696}]",2026-06-04 09:58:46,0.9519000000000001,150,250
s01,2026-06-04,7,complex_vowels,Session 7: Complex vowels,103,1,ㅝ,"5/150.5/d,8/i/100.8/150.0/150.5/150.5/d,6/i/100.6/150",voice_ml,8,ㅐ|ㅔ|ㅒ|ㅖ|ㅘ|ㅚ|ㅝ|ㅟ,ㅝ,0,1,1.863835999974981,0.910935999974981,,5.037428140640259,,,1780534760.1351473,1780534761.26819,1780534765.1725755,ml_jamo,hangul_learning_results\subject_s01\voice_trials\trial_voice_1780534764062.wav,,,0.3309796000830829,1.5,"[{""label"": ""ㅘ"", ""probability"": 0.23846153846153845, ""score"": 0.23846153846153845}, {""label"": ""ㅝ"", ""probability"": 0.15192307692307694, ""score"": 0.15192307692307694}, {""label"": ""ㅚ"", ""probability"": 0.023076923076923078, ""score"": 0.023076923076923078}, {""label"": ""ㅖ"", ""probability"": 0.015384615384615385, ""score"": 0.015384615384615385}, {""label"": ""ㅒ"", ""probability"": 0.007692307692307693, ""score"": 0.007692307692307693}]",2026-06-04 09:59:25,0.9529,150,250
s01,2026-06-04,7,complex_vowels,Session 7: Complex vowels,104,2,ㅐ,"5/150.5/d,4/i/100.4/150.0/150.5/150",voice_ml,8,ㅐ|ㅔ|ㅒ|ㅖ|ㅘ|ㅚ|ㅝ|ㅟ,ㅐ,0,1,1.8938156000804156,1.1924156000804156,,4.48034930229187,,,1780534765.5707603,1780534766.2759042,1780534770.0511096,ml_jamo,hangul_learning_results\subject_s01\voice_trials\trial_voice_1780534768995.wav,,,0.3629496998619288,1.41,"[{""label"": ""ㅔ"", ""probability"": 0.2519230769230769, ""score"": 0.2519230769230769}, {""label"": ""ㅐ"", ""probability"": 0.1596153846153846, ""score"": 0.1596153846153846}, {""label"": ""ㅒ"", ""probability"": 0.023076923076923078, ""score"": 0.023076923076923078}, {""label"": ""ㅚ"", ""probability"": 0.021153846153846155, ""score"": 0.021153846153846155}, {""label"": ""ㅟ"", ""probability"": 0.015384615384615385, ""score"": 0.015384615384615385}]",2026-06-04 09:59:30,0.7014,150,250
s01,2026-06-04,7,complex_vowels,Session 7: Complex vowels,105,3,ㅘ,"5/150.5/d,2/i/100.2/150.0/150.5/150.5/d,4/i/100.4/150",voice_ml,8,ㅐ|ㅔ|ㅒ|ㅖ|ㅘ|ㅚ|ㅝ|ㅟ,ㅘ,0,1,1.625050000147894,0.672950000147894,,4.0558860301971436,,,1780534770.3875287,1780534771.0520523,1780534774.4434147,ml_jamo,hangul_learning_results\subject_s01\voice_trials\trial_voice_1780534773624.wav,,,0.32961770007386804,1.53,"[{""label"": ""ㅘ"", ""probability"": 0.24615384615384617, ""score"": 0.24615384615384617}, {""label"": ""ㅝ"", ""probability"": 0.125, ""score"": 0.125}, {""label"": ""ㅚ"", ""probability"": 0.04423076923076923, ""score"": 0.04423076923076923}, {""label"": ""ㅔ"", ""probability"": 0.007692307692307693, ""score"": 0.007692307692307693}, {""label"": ""ㅒ"", ""probability"": 0.0057692307692307696, ""score"": 0.0057692307692307696}]",2026-06-04 09:59:34,0.9521000000000001,150,250
s01,2026-06-04,7,complex_vowels,Session 7: Complex vowels,106,4,ㅚ,"5/150.5/d,2/i/100.2/150.0/150.5/150",voice_ml,8,ㅐ|ㅔ|ㅒ|ㅖ|ㅘ|ㅚ|ㅝ|ㅟ,ㅚ,0,1,2.253862699959427,1.552662699959427,,4.757019758224487,,,1780534774.8310392,1780534775.4735317,1780534779.588059,ml_jamo,hangul_learning_results\subject_s01\voice_trials\trial_voice_1780534778613.wav,,,0.3302321000955999,1.47,"[{""label"": ""ㅚ"", ""probability"": 0.09230769230769231, ""score"": 0.09230769230769231}, {""label"": ""ㅐ"", ""probability"": 0.025, ""score"": 0.025}, {""label"": ""ㅔ"", ""probability"": 0.025, ""score"": 0.025}, {""label"": ""ㅒ"", ""probability"": 0.023076923076923078, ""score"": 0.023076923076923078}, {""label"": ""ㅖ"", ""probability"": 0.01730769230769231, ""score"": 0.01730769230769231}]",2026-06-04 09:59:39,0.7012,150,250
s01,2026-06-04,7,complex_vowels,Session 7: Complex vowels,107,5,ㅒ,"5/150.5/d,4/i/100.4/150.0/150.5/150.5/d,4/i/100.4/150.0/150.5/150",voice_ml,8,ㅐ|ㅔ|ㅒ|ㅖ|ㅘ|ㅚ|ㅝ|ㅟ,ㅒ,0,1,2.2548296998720616,1.0020296998720617,,4.617986679077148,,,1780534780.0210857,1780534780.648843,1780534784.6390724,ml_jamo,hangul_learning_results\subject_s01\voice_trials\trial_voice_1780534783809.wav,,,0.35144690005108714,1.47,"[{""label"": ""ㅒ"", ""probability"": 0.08461538461538462, ""score"": 0.08461538461538462}, {""label"": ""ㅔ"", ""probability"": 0.04230769230769231, ""score"": 0.04230769230769231}, {""label"": ""ㅖ"", ""probability"": 0.04230769230769231, ""score"": 0.04230769230769231}, {""label"": ""ㅚ"", ""probability"": 0.038461538461538464, ""score"": 0.038461538461538464}, {""label"": ""ㅐ"", ""probability"": 0.026923076923076925, ""score"": 0.026923076923076925}]",2026-06-04 09:59:44,1.2528,150,250
s01,2026-06-04,7,complex_vowels,Session 7: Complex vowels,108,6,ㅖ,"5/150.5/d,6/i/100.6/150.0/150.5/150.5/d,6/i/100.6/150.0/150.5/150",voice_ml,8,ㅐ|ㅔ|ㅒ|ㅖ|ㅘ|ㅚ|ㅝ|ㅟ,ㅖ,0,1,2.142961700214073,0.889761700214073,,4.630738019943237,,,1780534785.0660312,1780534785.790898,1780534789.6967692,ml_jamo,hangul_learning_results\subject_s01\voice_trials\trial_voice_1780534788838.wav,,,0.3447265001013875,1.47,"[{""label"": ""ㅖ"", ""probability"": 0.07115384615384615, ""score"": 0.07115384615384615}, {""label"": ""ㅒ"", ""probability"": 0.038461538461538464, ""score"": 0.038461538461538464}, {""label"": ""ㅐ"", ""probability"": 0.032692307692307694, ""score"": 0.032692307692307694}, {""label"": ""ㅘ"", ""probability"": 0.028846153846153848, ""score"": 0.028846153846153848}, {""label"": ""ㅔ"", ""probability"": 0.025, ""score"": 0.025}]",2026-06-04 09:59:49,1.2532,150,250
s01,2026-06-04,7,complex_vowels,Session 7: Complex vowels,109,7,ㅟ,"5/150.5/d,8/i/100.8/150.0/150.5/150",voice_ml,8,ㅐ|ㅔ|ㅒ|ㅖ|ㅘ|ㅚ|ㅝ|ㅟ,ㅟ,0,1,1.7775018999818712,1.0757018999818713,,4.171504497528076,,,1780534790.342604,1780534791.008403,1780534794.5141084,ml_jamo,hangul_learning_results\subject_s01\voice_trials\trial_voice_1780534793672.wav,,,0.33287200005725026,1.47,"[{""label"": ""ㅟ"", ""probability"": 0.0903846153846154, ""score"": 0.0903846153846154}, {""label"": ""ㅚ"", ""probability"": 0.03461538461538462, ""score"": 0.03461538461538462}, {""label"": ""ㅒ"", ""probability"": 0.021153846153846155, ""score"": 0.021153846153846155}, {""label"": ""ㅘ"", ""probability"": 0.021153846153846155, ""score"": 0.021153846153846155}, {""label"": ""ㅖ"", ""probability"": 0.019230769230769232, ""score"": 0.019230769230769232}]",2026-06-04 09:59:54,0.7018,150,250
s01,2026-06-04,7,complex_vowels,Session 7: Complex vowels,110,8,ㅔ,"5/150.5/d,6/i/100.6/150.0/150.5/150",voice_ml,8,ㅐ|ㅔ|ㅒ|ㅖ|ㅘ|ㅚ|ㅝ|ㅟ,ㅔ,0,1,1.7750552999787033,1.0734552999787033,,4.1545350551605225,,,1780534794.9020956,1780534795.5700786,1780534799.0566306,ml_jamo,hangul_learning_results\subject_s01\voice_trials\trial_voice_1780534798171.wav,,,0.3443595999851823,1.41,"[{""label"": ""ㅔ"", ""probability"": 0.15576923076923077, ""score"": 0.15576923076923077}, {""label"": ""ㅐ"", ""probability"": 0.08846153846153847, ""score"": 0.08846153846153847}, {""label"": ""ㅚ"", ""probability"": 0.026923076923076925, ""score"": 0.026923076923076925}, {""label"": ""ㅟ"", ""probability"": 0.019230769230769232, ""score"": 0.019230769230769232}, {""label"": ""ㅒ"", ""probability"": 0.01730769230769231, ""score"": 0.01730769230769231}]",2026-06-04 09:59:59,0.7016,150,250
s01,2026-06-04,7,complex_vowels,Session 7: Complex vowels,111,9,ㅒ,"5/150.5/d,4/i/100.4/150.0/150.5/150.5/d,4/i/100.4/150.0/150.5/150",voice_ml,8,ㅐ|ㅔ|ㅒ|ㅖ|ㅘ|ㅚ|ㅝ|ㅟ,ㅒ,0,1,1.7757708998396993,0.5229708998396994,,4.638466835021973,,,1780534799.432541,1780534800.0678298,1780534804.0710077,ml_jamo,hangul_learning_results\subject_s01\voice_trials\trial_voice_1780534802748.wav,,,0.33229779987595975,1.47,"[{""label"": ""ㅖ"", ""probability"": 0.04807692307692308, ""score"": 0.04807692307692308}, {""label"": ""ㅚ"", ""probability"": 0.04423076923076923, ""score"": 0.04423076923076923}, {""label"": ""ㅒ"", ""probability"": 0.03076923076923077, ""score"": 0.03076923076923077}, {""label"": ""ㅟ"", ""probability"": 0.03076923076923077, ""score"": 0.03076923076923077}, {""label"": ""ㅔ"", ""probability"": 0.023076923076923078, ""score"": 0.023076923076923078}]",2026-06-04 10:00:04,1.2528,150,250
s01,2026-06-04,7,complex_vowels,Session 7: Complex vowels,112,10,ㅐ,"5/150.5/d,4/i/100.4/150.0/150.5/150",voice_ml,8,ㅐ|ㅔ|ㅒ|ㅖ|ㅘ|ㅚ|ㅝ|ㅟ,ㅐ,0,1,1.5939054999034852,0.8925054999034852,,4.016120672225952,,,1780534804.3860316,1780534805.0452933,1780534808.4021523,ml_jamo,hangul_learning_results\subject_s01\voice_trials\trial_voice_1780534807465.wav,,,0.3365710999350995,1.41,"[{""label"": ""ㅔ"", ""probability"": 0.24615384615384617, ""score"": 0.24615384615384617}, {""label"": ""ㅐ"", ""probability"": 0.15000000000000002, ""score"": 0.15000000000000002}, {""label"": ""ㅚ"", ""probability"": 0.021153846153846155, ""score"": 0.021153846153846155}, {""label"": ""ㅒ"", ""probability"": 0.015384615384615385, ""score"": 0.015384615384615385}, {""label"": ""ㅖ"", ""probability"": 0.011538461538461539, ""score"": 0.011538461538461539}]",2026-06-04 10:00:08,0.7014,150,250
s01,2026-06-04,7,complex_vowels,Session 7: Complex vowels,113,11,ㅔ,"5/150.5/d,6/i/100.6/150.0/150.5/150",voice_ml,8,ㅐ|ㅔ|ㅒ|ㅖ|ㅘ|ㅚ|ㅝ|ㅟ,ㅔ,0,1,1.47370360000059,0.7721036000005901,,3.833280324935913,,,1780534808.772008,1780534809.4023712,1780534812.6052883,ml_jamo,hangul_learning_results\subject_s01\voice_trials\trial_voice_1780534811776.wav,,,0.34139650012366474,1.47,"[{""label"": ""ㅔ"", ""probability"": 0.20576923076923076, ""score"": 0.20576923076923076}, {""label"": ""ㅐ"", ""probability"": 0.09615384615384616, ""score"": 0.09615384615384616}, {""label"": ""ㅚ"", ""probability"": 0.04807692307692308, ""score"": 0.04807692307692308}, {""label"": ""ㅖ"", ""probability"": 0.025, ""score"": 0.025}, {""label"": ""ㅘ"", ""probability"": 0.009615384615384616, ""score"": 0.009615384615384616}]",2026-06-04 10:00:12,0.7016,150,250
s01,2026-06-04,7,complex_vowels,Session 7: Complex vowels,114,12,ㅝ,"5/150.5/d,8/i/100.8/150.0/150.5/150.5/d,6/i/100.6/150",voice_ml,8,ㅐ|ㅔ|ㅒ|ㅖ|ㅘ|ㅚ|ㅝ|ㅟ,ㅝ,0,1,1.6839956999756396,0.7310956999756396,,4.334998607635498,,,1780534812.936056,1780534813.5929234,1780534817.2710545,ml_jamo,hangul_learning_results\subject_s01\voice_trials\trial_voice_1780534816206.wav,,,0.3442259000148624,1.5,"[{""label"": ""ㅘ"", ""probability"": 0.13653846153846155, ""score"": 0.13653846153846155}, {""label"": ""ㅝ"", ""probability"": 0.10384615384615385, ""score"": 0.10384615384615385}, {""label"": ""ㅚ"", ""probability"": 0.046153846153846156, ""score"": 0.046153846153846156}, {""label"": ""ㅔ"", ""probability"": 0.01730769230769231, ""score"": 0.01730769230769231}, {""label"": ""ㅐ"", ""probability"": 0.015384615384615385, ""score"": 0.015384615384615385}]",2026-06-04 10:00:17,0.9529,150,250
s01,2026-06-04,7,complex_vowels,Session 7: Complex vowels,115,13,ㅟ,"5/150.5/d,8/i/100.8/150.0/150.5/150",voice_ml,8,ㅐ|ㅔ|ㅒ|ㅖ|ㅘ|ㅚ|ㅝ|ㅟ,ㅟ,0,1,1.5629165000282228,0.8611165000282228,,4.7098939418792725,,,1780534817.976661,1780534818.6672971,1780534822.686555,ml_jamo,hangul_learning_results\subject_s01\voice_trials\trial_voice_1780534821056.wav,,,0.33762119989842176,1.41,"[{""label"": ""ㅖ"", ""probability"": 0.028846153846153848, ""score"": 0.028846153846153848}, {""label"": ""ㅚ"", ""probability"": 0.028846153846153848, ""score"": 0.028846153846153848}, {""label"": ""ㅘ"", ""probability"": 0.026923076923076925, ""score"": 0.026923076923076925}, {""label"": ""ㅟ"", ""probability"": 0.026923076923076925, ""score"": 0.026923076923076925}, {""label"": ""ㅔ"", ""probability"": 0.015384615384615385, ""score"": 0.015384615384615385}]",2026-06-04 10:00:22,0.7018,150,250
s01,2026-06-04,7,complex_vowels,Session 7: Complex vowels,116,14,ㅖ,"5/150.5/d,6/i/100.6/150.0/150.5/150.5/d,6/i/100.6/150.0/150.5/150",voice_ml,8,ㅐ|ㅔ|ㅒ|ㅖ|ㅘ|ㅚ|ㅝ|ㅟ,ㅖ,0,1,1.7134660999290645,0.4602660999290644,,4.246164321899414,,,1780534823.0180476,1780534823.6755724,1780534827.264212,ml_jamo,hangul_learning_results\subject_s01\voice_trials\trial_voice_1780534826281.wav,,,0.38730140007101,1.47,"[{""label"": ""ㅖ"", ""probability"": 0.057692307692307696, ""score"": 0.057692307692307696}, {""label"": ""ㅚ"", ""probability"": 0.051923076923076926, ""score"": 0.051923076923076926}, {""label"": ""ㅒ"", ""probability"": 0.04807692307692308, ""score"": 0.04807692307692308}, {""label"": ""ㅝ"", ""probability"": 0.032692307692307694, ""score"": 0.032692307692307694}, {""label"": ""ㅘ"", ""probability"": 0.03076923076923077, ""score"": 0.03076923076923077}]",2026-06-04 10:00:27,1.2532,150,250
s01,2026-06-04,7,complex_vowels,Session 7: Complex vowels,117,15,ㅚ,"5/150.5/d,2/i/100.2/150.0/150.5/150",voice_ml,8,ㅐ|ㅔ|ㅒ|ㅖ|ㅘ|ㅚ|ㅝ|ㅟ,ㅚ,0,1,1.683465600013733,0.9822656000137329,,4.177427768707275,,,1780534827.742566,1780534828.4637733,1780534831.9199939,ml_jamo,hangul_learning_results\subject_s01\voice_trials\trial_voice_1780534831063.wav,,,0.34321830002591014,1.5,"[{""label"": ""ㅚ"", ""probability"": 0.1, ""score"": 0.1}, {""label"": ""ㅔ"", ""probability"": 0.026923076923076925, ""score"": 0.026923076923076925}, {""label"": ""ㅘ"", ""probability"": 0.019230769230769232, ""score"": 0.019230769230769232}, {""label"": ""ㅝ"", ""probability"": 0.013461538461538462, ""score"": 0.013461538461538462}, {""label"": ""ㅐ"", ""probability"": 0.011538461538461539, ""score"": 0.011538461538461539}]",2026-06-04 10:00:31,0.7012,150,250
s01,2026-06-04,7,complex_vowels,Session 7: Complex vowels,118,16,ㅘ,"5/150.5/d,2/i/100.2/150.0/150.5/150.5/d,4/i/100.4/150",voice_ml,8,ㅐ|ㅔ|ㅒ|ㅖ|ㅘ|ㅚ|ㅝ|ㅟ,ㅘ,0,1,1.5633913001511246,0.6112913001511245,,3.934417486190796,,,1780534832.3677807,1780534833.02487,1780534836.3021982,ml_jamo,hangul_learning_results\subject_s01\voice_trials\trial_voice_1780534835459.wav,,,0.3366270998958498,1.44,"[{""label"": ""ㅘ"", ""probability"": 0.2692307692307692, ""score"": 0.2692307692307692}, {""label"": ""ㅝ"", ""probability"": 0.06346153846153846, ""score"": 0.06346153846153846}, {""label"": ""ㅔ"", ""probability"": 0.021153846153846155, ""score"": 0.021153846153846155}, {""label"": ""ㅐ"", ""probability"": 0.011538461538461539, ""score"": 0.011538461538461539}, {""label"": ""ㅚ"", ""probability"": 0.011538461538461539, ""score"": 0.011538461538461539}]",2026-06-04 10:00:36,0.9521000000000001,150,250
s01,2026-06-04,8,all_vowels,Session 8: All vowels,119,1,ㅟ,"5/150.5/d,8/i/100.8/150.0/150.5/150",voice_ml,19,ㅣ|ㅡ|ㅏ|ㅓ|ㅗ|ㅜ|ㅢ|ㅑ|ㅕ|ㅛ|ㅠ|ㅐ|ㅔ|ㅒ|ㅖ|ㅘ|ㅚ|ㅝ|ㅟ,ㅟ,0,1,1.4224884998984635,0.7206884998984635,,4.4637672901153564,,,1780534843.4637287,1780534844.4811254,1780534847.927496,ml_jamo,hangul_learning_results\subject_s01\voice_trials\trial_voice_1780534846699.wav,,,0.3355044999625534,1.38,"[{""label"": ""ㅟ"", ""probability"": 0.10192307692307692, ""score"": 0.10192307692307692}, {""label"": ""ㅚ"", ""probability"": 0.04807692307692308, ""score"": 0.04807692307692308}, {""label"": ""ㅣ"", ""probability"": 0.046153846153846156, ""score"": 0.046153846153846156}, {""label"": ""ㅠ"", ""probability"": 0.025, ""score"": 0.025}, {""label"": ""ㅔ"", ""probability"": 0.023076923076923078, ""score"": 0.023076923076923078}]",2026-06-04 10:00:47,0.7018,150,250
