subject,day,session_idx,session_name,session_title,trial_index_global,trial_index_session,target_label,target_command,response_mode,option_count,options,selected_label,manual_response,correct,rt_sec,rt_from_stimulus_sec,voice_onset_rt_sec,trial_elapsed_sec,session_elapsed_sec,day_elapsed_sec,trial_start_time,stimulus_sent_time,answer_time,voice_engine,voice_wav_path,voice_stt_raw,voice_stt_norm,voice_process_time_sec,voice_recorded_duration_sec,top_candidates,timestamp,stimulus_duration_sec,within_unit_interval_ms,cv_interval_ms
s01,2026-06-02,1,basic_consonants,Session 1: Basic consonants,1,1,ㅅ,4/150,voice_ml,7,ㄱ|ㄴ|ㄷ|ㅂ|ㅅ|ㅇ|ㅈ,ㅅ,0,1,1.2401197000872344,1.0901197000872345,,109.89297771453857,,,1780372261.6410027,1780372367.9132416,1780372371.5339804,ml_jamo,hangul_learning_results\subject_s01\voice_trials\trial_voice_1780372369963.wav,,,0.41173380007967353,1.38,"[{""label"": ""ㅅ"", ""probability"": 0.12115384615384617, ""score"": 0.12115384615384617}, {""label"": ""ㄱ"", ""probability"": 0.06346153846153846, ""score"": 0.06346153846153846}, {""label"": ""ㄷ"", ""probability"": 0.026923076923076925, ""score"": 0.026923076923076925}, {""label"": ""ㅈ"", ""probability"": 0.025, ""score"": 0.025}, {""label"": ""ㄴ"", ""probability"": 0.011538461538461539, ""score"": 0.011538461538461539}]",2026-06-02 12:52:51,0.15,150,250
s01,2026-06-02,1,basic_consonants,Session 1: Basic consonants,2,2,ㄱ,3/150,voice_ml,7,ㄱ|ㄴ|ㄷ|ㅂ|ㅅ|ㅇ|ㅈ,ㄱ,0,1,0.66532769985497,0.51532769985497,,3.3925893306732178,,,1780372372.855091,1780372373.827251,1780372376.2476804,ml_jamo,hangul_learning_results\subject_s01\voice_trials\trial_voice_1780372375229.wav,,,0.34572570002637804,1.32,"[{""label"": ""ㄱ"", ""probability"": 0.06346153846153846, ""score"": 0.06346153846153846}, {""label"": ""ㄷ"", ""probability"": 0.05961538461538462, ""score"": 0.05961538461538462}, {""label"": ""ㅇ"", ""probability"": 0.04230769230769231, ""score"": 0.04230769230769231}, {""label"": ""ㄴ"", ""probability"": 0.028846153846153848, ""score"": 0.028846153846153848}, {""label"": ""ㅂ"", ""probability"": 0.026923076923076925, ""score"": 0.026923076923076925}]",2026-06-02 12:52:56,0.15,150,250
s01,2026-06-02,1,basic_consonants,Session 1: Basic consonants,3,3,ㄷ,1/150,voice_ml,7,ㄱ|ㄴ|ㄷ|ㅂ|ㅅ|ㅇ|ㅈ,ㄷ,0,1,0.6372255000751466,0.48722550007514653,,3.292261838912964,,,1780372376.9714658,1780372377.6163597,1780372380.2637277,ml_jamo,hangul_learning_results\subject_s01\voice_trials\trial_voice_1780372379070.wav,,,0.3502786001190543,1.35,"[{""label"": ""ㅇ"", ""probability"": 0.12115384615384615, ""score"": 0.12115384615384615}, {""label"": ""ㄴ"", ""probability"": 0.07884615384615384, ""score"": 0.07884615384615384}, {""label"": ""ㄷ"", ""probability"": 0.05961538461538462, ""score"": 0.05961538461538462}, {""label"": ""ㅂ"", ""probability"": 0.05576923076923077, ""score"": 0.05576923076923077}, {""label"": ""ㄱ"", ""probability"": 0.013461538461538462, ""score"": 0.013461538461538462}]",2026-06-02 12:53:00,0.15,150,250
s01,2026-06-02,1,basic_consonants,Session 1: Basic consonants,4,4,ㅈ,7/150,voice_ml,7,ㄱ|ㄴ|ㄷ|ㅂ|ㅅ|ㅇ|ㅈ,ㅈ,0,1,1.3941842999774963,1.2441842999774964,,4.182216167449951,,,1780372380.7004614,1780372381.3554633,1780372384.8826776,ml_jamo,hangul_learning_results\subject_s01\voice_trials\trial_voice_1780372383829.wav,,,0.37991790007799864,1.65,"[{""label"": ""ㅈ"", ""probability"": 0.19038461538461537, ""score"": 0.19038461538461537}, {""label"": ""ㄱ"", ""probability"": 0.057692307692307696, ""score"": 0.057692307692307696}, {""label"": ""ㅅ"", ""probability"": 0.05, ""score"": 0.05}, {""label"": ""ㄷ"", ""probability"": 0.021153846153846155, ""score"": 0.021153846153846155}, {""label"": ""ㅂ"", ""probability"": 0.015384615384615385, ""score"": 0.015384615384615385}]",2026-06-02 12:53:04,0.15,150,250
s01,2026-06-02,1,basic_consonants,Session 1: Basic consonants,5,5,ㅇ,9/150,voice_ml,7,ㄱ|ㄴ|ㄷ|ㅂ|ㅅ|ㅇ|ㅈ,ㅇ,0,1,1.057588400086388,0.907588400086388,,3.4452929496765137,,,1780372385.3185105,1780372385.9456089,1780372388.7638035,ml_jamo,hangul_learning_results\subject_s01\voice_trials\trial_voice_1780372387915.wav,,,0.37049180013127625,1.44,"[{""label"": ""ㅇ"", ""probability"": 0.10576923076923078, ""score"": 0.10576923076923078}, {""label"": ""ㅂ"", ""probability"": 0.05576923076923077, ""score"": 0.05576923076923077}, {""label"": ""ㄴ"", ""probability"": 0.04230769230769231, ""score"": 0.04230769230769231}, {""label"": ""ㄷ"", ""probability"": 0.038461538461538464, ""score"": 0.038461538461538464}, {""label"": ""ㄱ"", ""probability"": 0.028846153846153848, ""score"": 0.028846153846153848}]",2026-06-02 12:53:08,0.15,150,250
s01,2026-06-02,1,basic_consonants,Session 1: Basic consonants,6,6,ㅂ,6/150,voice_ml,7,ㄱ|ㄴ|ㄷ|ㅂ|ㅅ|ㅇ|ㅈ,ㅂ,0,1,2.2757459999993443,2.1257459999993444,,4.924370288848877,,,1780372389.2017088,1780372389.8436391,1780372394.126079,ml_jamo,hangul_learning_results\subject_s01\voice_trials\trial_voice_1780372392854.wav,,,0.3576902998611331,1.26,"[{""label"": ""ㅂ"", ""probability"": 0.11346153846153847, ""score"": 0.11346153846153847}, {""label"": ""ㄷ"", ""probability"": 0.09230769230769231, ""score"": 0.09230769230769231}, {""label"": ""ㄴ"", ""probability"": 0.08076923076923077, ""score"": 0.08076923076923077}, {""label"": ""ㅇ"", ""probability"": 0.04230769230769231, ""score"": 0.04230769230769231}, {""label"": ""ㅈ"", ""probability"": 0.023076923076923078, ""score"": 0.023076923076923078}]",2026-06-02 12:53:14,0.15,150,250
s01,2026-06-02,1,basic_consonants,Session 1: Basic consonants,7,7,ㄴ,2/150,voice_ml,7,ㄱ|ㄴ|ㄷ|ㅂ|ㅅ|ㅇ|ㅈ,ㄴ,0,1,0.8781856000423431,0.7281856000423431,,3.5210511684417725,,,1780372394.7057467,1780372395.367627,1780372398.2267978,ml_jamo,hangul_learning_results\subject_s01\voice_trials\trial_voice_1780372397215.wav,,,0.38731419993564487,1.53,"[{""label"": ""ㄴ"", ""probability"": 0.1326923076923077, ""score"": 0.1326923076923077}, {""label"": ""ㅇ"", ""probability"": 0.10384615384615385, ""score"": 0.10384615384615385}, {""label"": ""ㄷ"", ""probability"": 0.046153846153846156, ""score"": 0.046153846153846156}, {""label"": ""ㅂ"", ""probability"": 0.046153846153846156, ""score"": 0.046153846153846156}, {""label"": ""ㄱ"", ""probability"": 0.015384615384615385, ""score"": 0.015384615384615385}]",2026-06-02 12:53:18,0.15,150,250
s01,2026-06-02,1,basic_consonants,Session 1: Basic consonants,8,8,ㅈ,7/150,voice_ml,7,ㄱ|ㄴ|ㄷ|ㅂ|ㅅ|ㅇ|ㅈ,ㅈ,0,1,0.9049031999893486,0.7549031999893486,,4.346581935882568,,,1780372403.0106795,1780372403.6914637,1780372407.3572614,ml_jamo,hangul_learning_results\subject_s01\voice_trials\trial_voice_1780372405663.wav,,,0.3629644999746233,1.65,"[{""label"": ""ㅇ"", ""probability"": 0.1326923076923077, ""score"": 0.1326923076923077}, {""label"": ""ㄴ"", ""probability"": 0.04807692307692308, ""score"": 0.04807692307692308}, {""label"": ""ㅂ"", ""probability"": 0.019230769230769232, ""score"": 0.019230769230769232}, {""label"": ""ㄱ"", ""probability"": 0.009615384615384616, ""score"": 0.009615384615384616}, {""label"": ""ㅈ"", ""probability"": 0.0057692307692307696, ""score"": 0.0057692307692307696}]",2026-06-02 12:53:27,0.15,150,250
s01,2026-06-02,1,basic_consonants,Session 1: Basic consonants,9,9,ㅇ,9/150,voice_ml,7,ㄱ|ㄴ|ㄷ|ㅂ|ㅅ|ㅇ|ㅈ,ㅇ,0,1,0.7765842000953853,0.6265842000953853,,3.136030435562134,,,1780372407.854656,1780372408.5054507,1780372410.9906864,ml_jamo,hangul_learning_results\subject_s01\voice_trials\trial_voice_1780372410084.wav,,,0.35178709984757006,1.38,"[{""label"": ""ㅇ"", ""probability"": 0.08076923076923077, ""score"": 0.08076923076923077}, {""label"": ""ㅂ"", ""probability"": 0.04038461538461539, ""score"": 0.04038461538461539}, {""label"": ""ㄴ"", ""probability"": 0.03076923076923077, ""score"": 0.03076923076923077}, {""label"": ""ㄱ"", ""probability"": 0.01730769230769231, ""score"": 0.01730769230769231}, {""label"": ""ㄷ"", ""probability"": 0.01730769230769231, ""score"": 0.01730769230769231}]",2026-06-02 12:53:30,0.15,150,250
s01,2026-06-02,1,basic_consonants,Session 1: Basic consonants,10,10,ㄴ,2/150,voice_ml,7,ㄱ|ㄴ|ㄷ|ㅂ|ㅅ|ㅇ|ㅈ,ㄴ,0,1,0.5756434998475015,0.4256434998475015,,3.0333704948425293,,,1780372411.4343495,1780372412.0969577,1780372414.46772,ml_jamo,hangul_learning_results\subject_s01\voice_trials\trial_voice_1780372413587.wav,,,0.3322429999243468,1.44,"[{""label"": ""ㅇ"", ""probability"": 0.09615384615384616, ""score"": 0.09615384615384616}, {""label"": ""ㄴ"", ""probability"": 0.09423076923076923, ""score"": 0.09423076923076923}, {""label"": ""ㅂ"", ""probability"": 0.032692307692307694, ""score"": 0.032692307692307694}, {""label"": ""ㄱ"", ""probability"": 0.011538461538461539, ""score"": 0.011538461538461539}, {""label"": ""ㄷ"", ""probability"": 0.007692307692307693, ""score"": 0.007692307692307693}]",2026-06-02 12:53:34,0.15,150,250
s01,2026-06-02,1,basic_consonants,Session 1: Basic consonants,11,11,ㅅ,4/150,voice_ml,7,ㄱ|ㄴ|ㄷ|ㅂ|ㅅ|ㅇ|ㅈ,ㅅ,0,1,0.9355105001013726,0.7855105001013726,,3.0728721618652344,,,1780372414.9758518,1780372415.634131,1780372418.048724,ml_jamo,hangul_learning_results\subject_s01\voice_trials\trial_voice_1780372417257.wav,,,0.34149960009381175,1.26,"[{""label"": ""ㅅ"", ""probability"": 0.08076923076923077, ""score"": 0.08076923076923077}, {""label"": ""ㄱ"", ""probability"": 0.05576923076923077, ""score"": 0.05576923076923077}, {""label"": ""ㅈ"", ""probability"": 0.03076923076923077, ""score"": 0.03076923076923077}, {""label"": ""ㄷ"", ""probability"": 0.01730769230769231, ""score"": 0.01730769230769231}, {""label"": ""ㅇ"", ""probability"": 0.011538461538461539, ""score"": 0.011538461538461539}]",2026-06-02 12:53:38,0.15,150,250
s01,2026-06-02,1,basic_consonants,Session 1: Basic consonants,12,12,ㅂ,6/150,voice_ml,7,ㄱ|ㄴ|ㄷ|ㅂ|ㅅ|ㅇ|ㅈ,ㄱ,0,0,1.7736601000651717,1.6236601000651718,,5.602822303771973,,,1780372551.1809547,1780372553.2565947,1780372556.783777,ml_jamo,hangul_learning_results\subject_s01\voice_trials\trial_voice_1780372555707.wav,,,0.3613743002060801,1.26,"[{""label"": ""ㄱ"", ""probability"": 0.05384615384615385, ""score"": 0.05384615384615385}, {""label"": ""ㅅ"", ""probability"": 0.03653846153846154, ""score"": 0.03653846153846154}, {""label"": ""ㅈ"", ""probability"": 0.023076923076923078, ""score"": 0.023076923076923078}, {""label"": ""ㄷ"", ""probability"": 0.01730769230769231, ""score"": 0.01730769230769231}, {""label"": ""ㅂ"", ""probability"": 0.013461538461538462, ""score"": 0.013461538461538462}]",2026-06-02 12:55:56,0.15,150,250
s01,2026-06-02,1,basic_consonants,Session 1: Basic consonants,13,13,ㄱ,3/150,voice_ml,7,ㄱ|ㄴ|ㄷ|ㅂ|ㅅ|ㅇ|ㅈ,ㄱ,0,1,0.8156582000665367,0.6656582000665366,,4.565265417098999,,,1780372604.626506,1780372606.04487,1780372609.1917715,ml_jamo,hangul_learning_results\subject_s01\voice_trials\trial_voice_1780372608257.wav,,,0.35899399989284575,1.98,"[{""label"": ""ㄱ"", ""probability"": 0.12884615384615386, ""score"": 0.12884615384615386}, {""label"": ""ㄷ"", ""probability"": 0.025, ""score"": 0.025}, {""label"": ""ㅂ"", ""probability"": 0.023076923076923078, ""score"": 0.023076923076923078}, {""label"": ""ㅈ"", ""probability"": 0.021153846153846155, ""score"": 0.021153846153846155}, {""label"": ""ㄴ"", ""probability"": 0.019230769230769232, ""score"": 0.019230769230769232}]",2026-06-02 12:56:49,0.15,150,250
s01,2026-06-02,1,basic_consonants,Session 1: Basic consonants,14,14,ㄷ,1/150,voice_ml,7,ㄱ|ㄴ|ㄷ|ㅂ|ㅅ|ㅇ|ㅈ,ㄷ,0,1,0.8733632999937981,0.7233632999937981,,8.683997631072998,,,1780372609.7127159,1780372610.358355,1780372618.3967135,ml_jamo,hangul_learning_results\subject_s01\voice_trials\trial_voice_1780372611909.wav,,,0.34920740011148155,1.26,"[{""label"": ""ㄷ"", ""probability"": 0.06730769230769232, ""score"": 0.06730769230769232}, {""label"": ""ㄴ"", ""probability"": 0.051923076923076926, ""score"": 0.051923076923076926}, {""label"": ""ㅇ"", ""probability"": 0.04038461538461539, ""score"": 0.04038461538461539}, {""label"": ""ㅈ"", ""probability"": 0.03653846153846154, ""score"": 0.03653846153846154}, {""label"": ""ㅂ"", ""probability"": 0.03461538461538462, ""score"": 0.03461538461538462}]",2026-06-02 12:56:58,0.15,150,250
s01,2026-06-02,1,basic_consonants,Session 1: Basic consonants,15,15,ㄴ,2/150,voice_ml,7,ㄱ|ㄴ|ㄷ|ㅂ|ㅅ|ㅇ|ㅈ,ㄴ,0,1,0.6942482001613826,0.5442482001613825,,3.1620285511016846,,,1780372619.0713296,1780372619.7267685,1780372622.2333581,ml_jamo,hangul_learning_results\subject_s01\voice_trials\trial_voice_1780372621215.wav,,,0.356785099953413,1.38,"[{""label"": ""ㅇ"", ""probability"": 0.12884615384615383, ""score"": 0.12884615384615383}, {""label"": ""ㄴ"", ""probability"": 0.05576923076923077, ""score"": 0.05576923076923077}, {""label"": ""ㅂ"", ""probability"": 0.026923076923076925, ""score"": 0.026923076923076925}, {""label"": ""ㄱ"", ""probability"": 0.021153846153846155, ""score"": 0.021153846153846155}, {""label"": ""ㄷ"", ""probability"": 0.013461538461538462, ""score"": 0.013461538461538462}]",2026-06-02 12:57:02,0.15,150,250
s01,2026-06-02,1,basic_consonants,Session 1: Basic consonants,16,16,ㅅ,4/150,voice_ml,7,ㄱ|ㄴ|ㄷ|ㅂ|ㅅ|ㅇ|ㅈ,ㅅ,0,1,1.063187399879098,0.9131873998790979,,3.2587196826934814,,,1780372622.8960288,1780372623.543908,1780372626.1547484,ml_jamo,hangul_learning_results\subject_s01\voice_trials\trial_voice_1780372625295.wav,,,0.35096250008791685,1.26,"[{""label"": ""ㅅ"", ""probability"": 0.13076923076923078, ""score"": 0.13076923076923078}, {""label"": ""ㄱ"", ""probability"": 0.07692307692307693, ""score"": 0.07692307692307693}, {""label"": ""ㅈ"", ""probability"": 0.032692307692307694, ""score"": 0.032692307692307694}, {""label"": ""ㄷ"", ""probability"": 0.021153846153846155, ""score"": 0.021153846153846155}, {""label"": ""ㅇ"", ""probability"": 0.009615384615384616, ""score"": 0.009615384615384616}]",2026-06-02 12:57:06,0.15,150,250
s01,2026-06-02,1,basic_consonants,Session 1: Basic consonants,17,17,ㄷ,1/150,voice_ml,7,ㄱ|ㄴ|ㄷ|ㅂ|ㅅ|ㅇ|ㅈ,ㄷ,0,1,0.8445896999910474,0.6945896999910474,,3.436997175216675,,,1780372626.5352006,1780372627.2054727,1780372629.9721978,ml_jamo,hangul_learning_results\subject_s01\voice_trials\trial_voice_1780372628786.wav,,,0.34810260008089244,1.32,"[{""label"": ""ㅂ"", ""probability"": 0.07307692307692308, ""score"": 0.07307692307692308}, {""label"": ""ㄴ"", ""probability"": 0.06538461538461539, ""score"": 0.06538461538461539}, {""label"": ""ㄷ"", ""probability"": 0.06153846153846154, ""score"": 0.06153846153846154}, {""label"": ""ㅇ"", ""probability"": 0.046153846153846156, ""score"": 0.046153846153846156}, {""label"": ""ㅈ"", ""probability"": 0.019230769230769232, ""score"": 0.019230769230769232}]",2026-06-02 12:57:09,0.15,150,250
s01,2026-06-02,1,basic_consonants,Session 1: Basic consonants,18,18,ㅈ,7/150,voice_ml,7,ㄱ|ㄴ|ㄷ|ㅂ|ㅅ|ㅇ|ㅈ,ㅈ,0,1,1.3541903998702765,1.2041903998702765,,3.6440811157226562,,,1780372630.2822,1780372630.9440396,1780372633.9262812,ml_jamo,hangul_learning_results\subject_s01\voice_trials\trial_voice_1780372633047.wav,,,0.35815580002963543,1.32,"[{""label"": ""ㅈ"", ""probability"": 0.18076923076923077, ""score"": 0.18076923076923077}, {""label"": ""ㄱ"", ""probability"": 0.07500000000000001, ""score"": 0.07500000000000001}, {""label"": ""ㅇ"", ""probability"": 0.028846153846153848, ""score"": 0.028846153846153848}, {""label"": ""ㅂ"", ""probability"": 0.01730769230769231, ""score"": 0.01730769230769231}, {""label"": ""ㅅ"", ""probability"": 0.01730769230769231, ""score"": 0.01730769230769231}]",2026-06-02 12:57:13,0.15,150,250
s01,2026-06-02,1,basic_consonants,Session 1: Basic consonants,19,19,ㄱ,3/150,voice_ml,7,ㄱ|ㄴ|ㄷ|ㅂ|ㅅ|ㅇ|ㅈ,ㄱ,0,1,0.7246784998569638,0.5746784998569637,,2.9361729621887207,,,1780372634.513747,1780372635.184793,1780372637.44992,ml_jamo,hangul_learning_results\subject_s01\voice_trials\trial_voice_1780372636601.wav,,,0.37359899980947375,1.26,"[{""label"": ""ㄱ"", ""probability"": 0.06153846153846154, ""score"": 0.06153846153846154}, {""label"": ""ㅇ"", ""probability"": 0.03076923076923077, ""score"": 0.03076923076923077}, {""label"": ""ㅈ"", ""probability"": 0.023076923076923078, ""score"": 0.023076923076923078}, {""label"": ""ㄷ"", ""probability"": 0.019230769230769232, ""score"": 0.019230769230769232}, {""label"": ""ㄴ"", ""probability"": 0.01730769230769231, ""score"": 0.01730769230769231}]",2026-06-02 12:57:17,0.15,150,250
s01,2026-06-02,1,basic_consonants,Session 1: Basic consonants,20,20,ㅂ,6/150,voice_ml,7,ㄱ|ㄴ|ㄷ|ㅂ|ㅅ|ㅇ|ㅈ,ㅂ,0,1,1.684938999824226,1.534938999824226,,4.342898607254028,,,1780372637.8528388,1780372638.4923525,1780372642.1957374,ml_jamo,hangul_learning_results\subject_s01\voice_trials\trial_voice_1780372640974.wav,,,0.39031129982322454,1.38,"[{""label"": ""ㅇ"", ""probability"": 0.17115384615384616, ""score"": 0.17115384615384616}, {""label"": ""ㅂ"", ""probability"": 0.05576923076923077, ""score"": 0.05576923076923077}, {""label"": ""ㄴ"", ""probability"": 0.026923076923076925, ""score"": 0.026923076923076925}, {""label"": ""ㄱ"", ""probability"": 0.013461538461538462, ""score"": 0.013461538461538462}, {""label"": ""ㅈ"", ""probability"": 0.013461538461538462, ""score"": 0.013461538461538462}]",2026-06-02 12:57:22,0.15,150,250
s01,2026-06-02,1,basic_consonants,Session 1: Basic consonants,21,21,ㅇ,9/150,voice_ml,7,ㄱ|ㄴ|ㄷ|ㅂ|ㅅ|ㅇ|ㅈ,ㅇ,0,1,0.6658636000938714,0.5158636000938713,,2.9976658821105957,,,1780372642.9599109,1780372643.62497,1780372645.9575768,ml_jamo,hangul_learning_results\subject_s01\voice_trials\trial_voice_1780372645117.wav,,,0.3633856999222189,1.41,"[{""label"": ""ㅇ"", ""probability"": 0.1596153846153846, ""score"": 0.1596153846153846}, {""label"": ""ㄴ"", ""probability"": 0.06538461538461539, ""score"": 0.06538461538461539}, {""label"": ""ㅂ"", ""probability"": 0.028846153846153848, ""score"": 0.028846153846153848}, {""label"": ""ㄷ"", ""probability"": 0.023076923076923078, ""score"": 0.023076923076923078}, {""label"": ""ㄱ"", ""probability"": 0.011538461538461539, ""score"": 0.011538461538461539}]",2026-06-02 12:57:25,0.15,150,250
s01,2026-06-02,1,basic_consonants,Session 1: Basic consonants,22,22,ㄷ,1/150,voice_ml,7,ㄱ|ㄴ|ㄷ|ㅂ|ㅅ|ㅇ|ㅈ,ㄷ,0,1,0.9346480998210609,0.7846480998210609,,5.0151824951171875,,,1780372646.4450278,1780372647.1594834,1780372651.4602103,ml_jamo,hangul_learning_results\subject_s01\voice_trials\trial_voice_1780372648695.wav,,,0.35591430007480085,1.2,"[{""label"": ""ㄷ"", ""probability"": 0.06346153846153846, ""score"": 0.06346153846153846}, {""label"": ""ㅂ"", ""probability"": 0.03076923076923077, ""score"": 0.03076923076923077}, {""label"": ""ㅇ"", ""probability"": 0.03076923076923077, ""score"": 0.03076923076923077}, {""label"": ""ㄴ"", ""probability"": 0.026923076923076925, ""score"": 0.026923076923076925}, {""label"": ""ㅈ"", ""probability"": 0.021153846153846155, ""score"": 0.021153846153846155}]",2026-06-02 12:57:31,0.15,150,250
s01,2026-06-02,1,basic_consonants,Session 1: Basic consonants,23,23,ㅈ,7/150,voice_ml,7,ㄱ|ㄴ|ㄷ|ㅂ|ㅅ|ㅇ|ㅈ,ㅈ,0,1,0.9346946000587195,0.7846946000587195,,3.1718742847442627,,,1780372651.9471836,1780372652.6023638,1780372655.119058,ml_jamo,hangul_learning_results\subject_s01\voice_trials\trial_voice_1780372654242.wav,,,0.34421520004980266,1.29,"[{""label"": ""ㅈ"", ""probability"": 0.15576923076923077, ""score"": 0.15576923076923077}, {""label"": ""ㄱ"", ""probability"": 0.07500000000000001, ""score"": 0.07500000000000001}, {""label"": ""ㅂ"", ""probability"": 0.046153846153846156, ""score"": 0.046153846153846156}, {""label"": ""ㄷ"", ""probability"": 0.04423076923076923, ""score"": 0.04423076923076923}, {""label"": ""ㅅ"", ""probability"": 0.03461538461538462, ""score"": 0.03461538461538462}]",2026-06-02 12:57:35,0.15,150,250
s01,2026-06-02,1,basic_consonants,Session 1: Basic consonants,24,24,ㄴ,2/150,voice_ml,7,ㄱ|ㄴ|ㄷ|ㅂ|ㅅ|ㅇ|ㅈ,ㄴ,0,1,1.0243530001025647,0.8743530001025647,,3.4376659393310547,,,1780372655.4771507,1780372656.1170967,1780372658.9148166,ml_jamo,hangul_learning_results\subject_s01\voice_trials\trial_voice_1780372657967.wav,,,0.33713790006004274,1.41,"[{""label"": ""ㅇ"", ""probability"": 0.07500000000000001, ""score"": 0.07500000000000001}, {""label"": ""ㄴ"", ""probability"": 0.07307692307692308, ""score"": 0.07307692307692308}, {""label"": ""ㄷ"", ""probability"": 0.046153846153846156, ""score"": 0.046153846153846156}, {""label"": ""ㅂ"", ""probability"": 0.03076923076923077, ""score"": 0.03076923076923077}, {""label"": ""ㄱ"", ""probability"": 0.01730769230769231, ""score"": 0.01730769230769231}]",2026-06-02 12:57:38,0.15,150,250
s01,2026-06-02,1,basic_consonants,Session 1: Basic consonants,25,25,ㅂ,6/150,voice_ml,7,ㄱ|ㄴ|ㄷ|ㅂ|ㅅ|ㅇ|ㅈ,ㅂ,0,1,1.2382926000282168,1.088292600028217,,3.3195366859436035,,,1780372659.5797412,1780372660.2322402,1780372662.899278,ml_jamo,hangul_learning_results\subject_s01\voice_trials\trial_voice_1780372662148.wav,,,0.34717610012739897,1.26,"[{""label"": ""ㅂ"", ""probability"": 0.0903846153846154, ""score"": 0.0903846153846154}, {""label"": ""ㅇ"", ""probability"": 0.06730769230769232, ""score"": 0.06730769230769232}, {""label"": ""ㄷ"", ""probability"": 0.051923076923076926, ""score"": 0.051923076923076926}, {""label"": ""ㄴ"", ""probability"": 0.04423076923076923, ""score"": 0.04423076923076923}, {""label"": ""ㄱ"", ""probability"": 0.026923076923076925, ""score"": 0.026923076923076925}]",2026-06-02 12:57:42,0.15,150,250
s01,2026-06-02,1,basic_consonants,Session 1: Basic consonants,26,26,ㅅ,4/150,voice_ml,7,ㄱ|ㄴ|ㄷ|ㅂ|ㅅ|ㅇ|ㅈ,ㅅ,0,1,1.2412457999307662,1.0912457999307663,,3.358821153640747,,,1780372663.5244236,1780372664.1796765,1780372666.8832448,ml_jamo,hangul_learning_results\subject_s01\voice_trials\trial_voice_1780372666149.wav,,,0.36811539996415377,1.29,"[{""label"": ""ㅅ"", ""probability"": 0.07307692307692308, ""score"": 0.07307692307692308}, {""label"": ""ㄱ"", ""probability"": 0.046153846153846156, ""score"": 0.046153846153846156}, {""label"": ""ㅈ"", ""probability"": 0.038461538461538464, ""score"": 0.038461538461538464}, {""label"": ""ㄷ"", ""probability"": 0.01730769230769231, ""score"": 0.01730769230769231}, {""label"": ""ㅇ"", ""probability"": 0.015384615384615385, ""score"": 0.015384615384615385}]",2026-06-02 12:57:46,0.15,150,250
s01,2026-06-02,2,long_consonants,Session 2: Long consonants,27,1,ㅊ,7/350,voice_ml,7,ㅋ|ㄹ|ㅌ|ㅍ|ㅎ|ㅁ|ㅊ,ㅊ,0,1,1.2397819000761956,0.8897819000761956,,4.056872844696045,,,1780372668.433731,1780372669.6463094,1780372672.490604,ml_jamo,hangul_learning_results\subject_s01\voice_trials\trial_voice_1780372671679.wav,,,0.3388801000546664,1.38,"[{""label"": ""ㅊ"", ""probability"": 0.175, ""score"": 0.175}, {""label"": ""ㅎ"", ""probability"": 0.09423076923076923, ""score"": 0.09423076923076923}, {""label"": ""ㅌ"", ""probability"": 0.046153846153846156, ""score"": 0.046153846153846156}, {""label"": ""ㅋ"", ""probability"": 0.04038461538461539, ""score"": 0.04038461538461539}, {""label"": ""ㅍ"", ""probability"": 0.019230769230769232, ""score"": 0.019230769230769232}]",2026-06-02 12:57:52,0.35,150,250
s01,2026-06-02,2,long_consonants,Session 2: Long consonants,28,2,ㅁ,9/350,voice_ml,7,ㅋ|ㄹ|ㅌ|ㅍ|ㅎ|ㅁ|ㅊ,ㅁ,0,1,1.1436375000048429,0.7936375000048429,,4.547154903411865,,,1780372672.8838394,1780372673.5559154,1780372677.4309943,ml_jamo,hangul_learning_results\subject_s01\voice_trials\trial_voice_1780372675555.wav,,,0.3596294999588281,1.44,"[{""label"": ""ㅁ"", ""probability"": 0.08846153846153847, ""score"": 0.08846153846153847}, {""label"": ""ㄹ"", ""probability"": 0.03076923076923077, ""score"": 0.03076923076923077}, {""label"": ""ㅌ"", ""probability"": 0.019230769230769232, ""score"": 0.019230769230769232}, {""label"": ""ㅍ"", ""probability"": 0.015384615384615385, ""score"": 0.015384615384615385}, {""label"": ""ㅊ"", ""probability"": 0.0038461538461538464, ""score"": 0.0038461538461538464}]",2026-06-02 12:57:57,0.35,150,250
s01,2026-06-02,2,long_consonants,Session 2: Long consonants,29,3,ㅋ,3/350,voice_ml,7,ㅋ|ㄹ|ㅌ|ㅍ|ㅎ|ㅁ|ㅊ,ㅋ,0,1,1.1745241999160498,0.8245241999160499,,3.283978223800659,,,1780372677.9311287,1780372678.5726175,1780372681.215107,ml_jamo,hangul_learning_results\subject_s01\voice_trials\trial_voice_1780372680384.wav,,,0.3371101999655366,1.23,"[{""label"": ""ㅋ"", ""probability"": 0.07692307692307693, ""score"": 0.07692307692307693}, {""label"": ""ㅌ"", ""probability"": 0.051923076923076926, ""score"": 0.051923076923076926}, {""label"": ""ㅍ"", ""probability"": 0.051923076923076926, ""score"": 0.051923076923076926}, {""label"": ""ㅎ"", ""probability"": 0.04038461538461539, ""score"": 0.04038461538461539}, {""label"": ""ㅊ"", ""probability"": 0.03461538461538462, ""score"": 0.03461538461538462}]",2026-06-02 12:58:01,0.35,150,250
s01,2026-06-02,2,long_consonants,Session 2: Long consonants,30,4,ㄹ,2/350,voice_ml,7,ㅋ|ㄹ|ㅌ|ㅍ|ㅎ|ㅁ|ㅊ,ㄹ,0,1,0.9941809999290854,0.6441809999290854,,3.2837750911712646,,,1780372681.666996,1780372682.3201816,1780372684.950771,ml_jamo,hangul_learning_results\subject_s01\voice_trials\trial_voice_1780372684133.wav,,,0.34483439987525344,1.41,"[{""label"": ""ㅁ"", ""probability"": 0.0903846153846154, ""score"": 0.0903846153846154}, {""label"": ""ㄹ"", ""probability"": 0.05, ""score"": 0.05}, {""label"": ""ㅎ"", ""probability"": 0.015384615384615385, ""score"": 0.015384615384615385}, {""label"": ""ㅌ"", ""probability"": 0.013461538461538462, ""score"": 0.013461538461538462}, {""label"": ""ㅍ"", ""probability"": 0.013461538461538462, ""score"": 0.013461538461538462}]",2026-06-02 12:58:04,0.35,150,250
s01,2026-06-02,2,long_consonants,Session 2: Long consonants,31,5,ㅌ,1/350,voice_ml,7,ㅋ|ㄹ|ㅌ|ㅍ|ㅎ|ㅁ|ㅊ,ㅌ,0,1,0.9654496998991817,0.6154496998991817,,3.1791975498199463,,,1780372685.3292363,1780372685.97883,1780372688.5084338,ml_jamo,hangul_learning_results\subject_s01\voice_trials\trial_voice_1780372687649.wav,,,0.3594963999930769,1.29,"[{""label"": ""ㅌ"", ""probability"": 0.18846153846153846, ""score"": 0.18846153846153846}, {""label"": ""ㅍ"", ""probability"": 0.08461538461538462, ""score"": 0.08461538461538462}, {""label"": ""ㅎ"", ""probability"": 0.07500000000000001, ""score"": 0.07500000000000001}, {""label"": ""ㅋ"", ""probability"": 0.04423076923076923, ""score"": 0.04423076923076923}, {""label"": ""ㅊ"", ""probability"": 0.04230769230769231, ""score"": 0.04230769230769231}]",2026-06-02 12:58:08,0.35,150,250
s01,2026-06-02,2,long_consonants,Session 2: Long consonants,32,6,ㅎ,4/350,voice_ml,7,ㅋ|ㄹ|ㅌ|ㅍ|ㅎ|ㅁ|ㅊ,ㅍ,0,0,2.524108299985528,2.174108299985528,,4.655430793762207,,,1780372688.963255,1780372689.6131554,1780372693.6186857,ml_jamo,hangul_learning_results\subject_s01\voice_trials\trial_voice_1780372692813.wav,,,0.37257019989192486,1.26,"[{""label"": ""ㅍ"", ""probability"": 0.19615384615384618, ""score"": 0.19615384615384618}, {""label"": ""ㅌ"", ""probability"": 0.15384615384615385, ""score"": 0.15384615384615385}, {""label"": ""ㅋ"", ""probability"": 0.06153846153846154, ""score"": 0.06153846153846154}, {""label"": ""ㅎ"", ""probability"": 0.04038461538461539, ""score"": 0.04038461538461539}, {""label"": ""ㅊ"", ""probability"": 0.03076923076923077, ""score"": 0.03076923076923077}]",2026-06-02 12:58:13,0.35,150,250
s01,2026-06-02,2,long_consonants,Session 2: Long consonants,33,7,ㅍ,6/350,voice_ml,7,ㅋ|ㄹ|ㅌ|ㅍ|ㅎ|ㅁ|ㅊ,ㅍ,0,1,1.7903195000253618,1.4403195000253617,,4.2546491622924805,,,1780372695.3619635,1780372696.0267339,1780372699.6166127,ml_jamo,hangul_learning_results\subject_s01\voice_trials\trial_voice_1780372698530.wav,,,0.38659630017355084,1.29,"[{""label"": ""ㅌ"", ""probability"": 0.15384615384615385, ""score"": 0.15384615384615385}, {""label"": ""ㅍ"", ""probability"": 0.11538461538461539, ""score"": 0.11538461538461539}, {""label"": ""ㅋ"", ""probability"": 0.032692307692307694, ""score"": 0.032692307692307694}, {""label"": ""ㅎ"", ""probability"": 0.032692307692307694, ""score"": 0.032692307692307694}, {""label"": ""ㅊ"", ""probability"": 0.025, ""score"": 0.025}]",2026-06-02 12:58:19,0.35,150,250
s01,2026-06-02,2,long_consonants,Session 2: Long consonants,34,8,ㅁ,9/350,voice_ml,7,ㅋ|ㄹ|ㅌ|ㅍ|ㅎ|ㅁ|ㅊ,ㅁ,0,1,0.941330200061202,0.5913302000612021,,3.311877489089966,,,1780372700.030021,1780372700.6474044,1780372703.3418984,ml_jamo,hangul_learning_results\subject_s01\voice_trials\trial_voice_1780372702481.wav,,,0.41894349991343915,1.47,"[{""label"": ""ㅁ"", ""probability"": 0.14038461538461539, ""score"": 0.14038461538461539}, {""label"": ""ㄹ"", ""probability"": 0.06923076923076923, ""score"": 0.06923076923076923}, {""label"": ""ㅍ"", ""probability"": 0.011538461538461539, ""score"": 0.011538461538461539}, {""label"": ""ㅎ"", ""probability"": 0.007692307692307693, ""score"": 0.007692307692307693}, {""label"": ""ㅌ"", ""probability"": 0.0057692307692307696, ""score"": 0.0057692307692307696}]",2026-06-02 12:58:23,0.35,150,250
s01,2026-06-02,2,long_consonants,Session 2: Long consonants,35,9,ㅎ,4/350,voice_ml,7,ㅋ|ㄹ|ㅌ|ㅍ|ㅎ|ㅁ|ㅊ,ㅎ,0,1,1.3150827998761088,0.9650827998761088,,3.8115813732147217,,,1780372703.702625,1780372704.3255756,1780372707.5142064,ml_jamo,hangul_learning_results\subject_s01\voice_trials\trial_voice_1780372706356.wav,,,0.5171059002168477,1.29,"[{""label"": ""ㅎ"", ""probability"": 0.2653846153846154, ""score"": 0.2653846153846154}, {""label"": ""ㅌ"", ""probability"": 0.09230769230769231, ""score"": 0.09230769230769231}, {""label"": ""ㅍ"", ""probability"": 0.04423076923076923, ""score"": 0.04423076923076923}, {""label"": ""ㅊ"", ""probability"": 0.03076923076923077, ""score"": 0.03076923076923077}, {""label"": ""ㅋ"", ""probability"": 0.03076923076923077, ""score"": 0.03076923076923077}]",2026-06-02 12:58:27,0.35,150,250
s01,2026-06-02,2,long_consonants,Session 2: Long consonants,36,10,ㅍ,6/350,voice_ml,7,ㅋ|ㄹ|ㅌ|ㅍ|ㅎ|ㅁ|ㅊ,ㅍ,0,1,1.2010729999747127,0.8510729999747128,,3.6413464546203613,,,1780372707.885709,1780372708.5319,1780372711.5270555,ml_jamo,hangul_learning_results\subject_s01\voice_trials\trial_voice_1780372710416.wav,,,0.3587277999613434,1.26,"[{""label"": ""ㅌ"", ""probability"": 0.12884615384615386, ""score"": 0.12884615384615386}, {""label"": ""ㅍ"", ""probability"": 0.10192307692307692, ""score"": 0.10192307692307692}, {""label"": ""ㅎ"", ""probability"": 0.06730769230769232, ""score"": 0.06730769230769232}, {""label"": ""ㅋ"", ""probability"": 0.026923076923076925, ""score"": 0.026923076923076925}, {""label"": ""ㅊ"", ""probability"": 0.019230769230769232, ""score"": 0.019230769230769232}]",2026-06-02 12:58:31,0.35,150,250
s01,2026-06-02,2,long_consonants,Session 2: Long consonants,37,11,ㄹ,2/350,voice_ml,7,ㅋ|ㄹ|ㅌ|ㅍ|ㅎ|ㅁ|ㅊ,ㄹ,0,1,0.9041518999729306,0.5541518999729306,,9.20190143585205,,,1780372712.0864046,1780372712.8042977,1780372721.288306,ml_jamo,hangul_learning_results\subject_s01\voice_trials\trial_voice_1780372714563.wav,,,0.33963470021262765,1.44,"[{""label"": ""ㄹ"", ""probability"": 0.08846153846153847, ""score"": 0.08846153846153847}, {""label"": ""ㅁ"", ""probability"": 0.04807692307692308, ""score"": 0.04807692307692308}, {""label"": ""ㅌ"", ""probability"": 0.015384615384615385, ""score"": 0.015384615384615385}, {""label"": ""ㅎ"", ""probability"": 0.015384615384615385, ""score"": 0.015384615384615385}, {""label"": ""ㅍ"", ""probability"": 0.0057692307692307696, ""score"": 0.0057692307692307696}]",2026-06-02 12:58:41,0.35,150,250
s01,2026-06-02,2,long_consonants,Session 2: Long consonants,38,12,ㅌ,1/350,voice_ml,7,ㅋ|ㄹ|ㅌ|ㅍ|ㅎ|ㅁ|ㅊ,ㅌ,0,1,0.9945859001018107,0.6445859001018107,,3.1557512283325195,,,1780372721.930688,1780372722.570459,1780372725.0864391,ml_jamo,hangul_learning_results\subject_s01\voice_trials\trial_voice_1780372724254.wav,,,0.3569275001063943,1.26,"[{""label"": ""ㅌ"", ""probability"": 0.11730769230769231, ""score"": 0.11730769230769231}, {""label"": ""ㅍ"", ""probability"": 0.07884615384615384, ""score"": 0.07884615384615384}, {""label"": ""ㅋ"", ""probability"": 0.057692307692307696, ""score"": 0.057692307692307696}, {""label"": ""ㅎ"", ""probability"": 0.057692307692307696, ""score"": 0.057692307692307696}, {""label"": ""ㅊ"", ""probability"": 0.03076923076923077, ""score"": 0.03076923076923077}]",2026-06-02 12:58:45,0.35,150,250
s01,2026-06-02,2,long_consonants,Session 2: Long consonants,39,13,ㅊ,7/350,voice_ml,7,ㅋ|ㄹ|ㅌ|ㅍ|ㅎ|ㅁ|ㅊ,ㅊ,0,1,1.2950484999455512,0.9450484999455512,,3.5649302005767822,,,1780372725.6890607,1780372726.3459244,1780372729.253991,ml_jamo,hangul_learning_results\subject_s01\voice_trials\trial_voice_1780372728461.wav,,,0.3301034001633525,1.41,"[{""label"": ""ㅊ"", ""probability"": 0.29615384615384616, ""score"": 0.29615384615384616}, {""label"": ""ㅍ"", ""probability"": 0.057692307692307696, ""score"": 0.057692307692307696}, {""label"": ""ㅌ"", ""probability"": 0.04807692307692308, ""score"": 0.04807692307692308}, {""label"": ""ㅋ"", ""probability"": 0.04423076923076923, ""score"": 0.04423076923076923}, {""label"": ""ㅎ"", ""probability"": 0.025, ""score"": 0.025}]",2026-06-02 12:58:49,0.35,150,250
s01,2026-06-02,2,long_consonants,Session 2: Long consonants,40,14,ㅋ,3/350,voice_ml,7,ㅋ|ㄹ|ㅌ|ㅍ|ㅎ|ㅁ|ㅊ,ㅌ,0,0,1.0581711998675019,0.7081711998675019,,3.4532880783081055,,,1780372729.648704,1780372730.3226447,1780372733.1019921,ml_jamo,hangul_learning_results\subject_s01\voice_trials\trial_voice_1780372732073.wav,,,0.33795610000379384,1.26,"[{""label"": ""ㅎ"", ""probability"": 0.18653846153846154, ""score"": 0.18653846153846154}, {""label"": ""ㅌ"", ""probability"": 0.1, ""score"": 0.1}, {""label"": ""ㅋ"", ""probability"": 0.032692307692307694, ""score"": 0.032692307692307694}, {""label"": ""ㅊ"", ""probability"": 0.026923076923076925, ""score"": 0.026923076923076925}, {""label"": ""ㅍ"", ""probability"": 0.019230769230769232, ""score"": 0.019230769230769232}]",2026-06-02 12:58:53,0.35,150,250
s01,2026-06-02,2,long_consonants,Session 2: Long consonants,41,15,ㅍ,6/350,voice_ml,7,ㅋ|ㄹ|ㅌ|ㅍ|ㅎ|ㅁ|ㅊ,ㅍ,0,1,1.4982211000751704,1.1482211000751703,,4.0270466804504395,,,1780372734.4306567,1780372735.087663,1780372738.4577034,ml_jamo,hangul_learning_results\subject_s01\voice_trials\trial_voice_1780372737270.wav,,,0.37707980000413954,1.26,"[{""label"": ""ㅌ"", ""probability"": 0.18461538461538463, ""score"": 0.18461538461538463}, {""label"": ""ㅍ"", ""probability"": 0.14038461538461539, ""score"": 0.14038461538461539}, {""label"": ""ㅋ"", ""probability"": 0.05, ""score"": 0.05}, {""label"": ""ㅎ"", ""probability"": 0.03461538461538462, ""score"": 0.03461538461538462}, {""label"": ""ㅊ"", ""probability"": 0.015384615384615385, ""score"": 0.015384615384615385}]",2026-06-02 12:58:58,0.35,150,250
s01,2026-06-02,2,long_consonants,Session 2: Long consonants,42,16,ㅎ,4/350,voice_ml,7,ㅋ|ㄹ|ㅌ|ㅍ|ㅎ|ㅁ|ㅊ,ㅎ,0,1,1.033870100043714,0.6838701000437141,,3.263622522354126,,,1780372739.137446,1780372739.7747889,1780372742.4010684,ml_jamo,hangul_learning_results\subject_s01\voice_trials\trial_voice_1780372741569.wav,,,0.3325133000034839,1.29,"[{""label"": ""ㅎ"", ""probability"": 0.21153846153846154, ""score"": 0.21153846153846154}, {""label"": ""ㅌ"", ""probability"": 0.11153846153846154, ""score"": 0.11153846153846154}, {""label"": ""ㅍ"", ""probability"": 0.04038461538461539, ""score"": 0.04038461538461539}, {""label"": ""ㅋ"", ""probability"": 0.026923076923076925, ""score"": 0.026923076923076925}, {""label"": ""ㅊ"", ""probability"": 0.019230769230769232, ""score"": 0.019230769230769232}]",2026-06-02 12:59:02,0.35,150,250
s01,2026-06-02,2,long_consonants,Session 2: Long consonants,43,17,ㅊ,7/350,voice_ml,7,ㅋ|ㄹ|ㅌ|ㅍ|ㅎ|ㅁ|ㅊ,ㅊ,0,1,0.9637588998302817,0.6137588998302818,,3.5353121757507324,,,1780372742.8367698,1780372743.5102177,1780372746.372082,ml_jamo,hangul_learning_results\subject_s01\voice_trials\trial_voice_1780372745318.wav,,,0.3543589999899268,1.38,"[{""label"": ""ㅊ"", ""probability"": 0.2326923076923077, ""score"": 0.2326923076923077}, {""label"": ""ㅋ"", ""probability"": 0.14423076923076922, ""score"": 0.14423076923076922}, {""label"": ""ㅌ"", ""probability"": 0.07115384615384615, ""score"": 0.07115384615384615}, {""label"": ""ㅍ"", ""probability"": 0.06346153846153846, ""score"": 0.06346153846153846}, {""label"": ""ㅎ"", ""probability"": 0.051923076923076926, ""score"": 0.051923076923076926}]",2026-06-02 12:59:06,0.35,150,250
s01,2026-06-02,2,long_consonants,Session 2: Long consonants,44,18,ㅁ,9/350,voice_ml,7,ㅋ|ㄹ|ㅌ|ㅍ|ㅎ|ㅁ|ㅊ,ㅁ,0,1,1.6553060000296682,1.3053060000296681,,4.108964204788208,,,1780372747.8525596,1780372748.5368052,1780372751.9615238,ml_jamo,hangul_learning_results\subject_s01\voice_trials\trial_voice_1780372751132.wav,,,0.3825427999254316,1.47,"[{""label"": ""ㅁ"", ""probability"": 0.1326923076923077, ""score"": 0.1326923076923077}, {""label"": ""ㄹ"", ""probability"": 0.026923076923076925, ""score"": 0.026923076923076925}, {""label"": ""ㅍ"", ""probability"": 0.007692307692307693, ""score"": 0.007692307692307693}, {""label"": ""ㅎ"", ""probability"": 0.007692307692307693, ""score"": 0.007692307692307693}, {""label"": ""ㅋ"", ""probability"": 0.0038461538461538464, ""score"": 0.0038461538461538464}]",2026-06-02 12:59:11,0.35,150,250
s01,2026-06-02,2,long_consonants,Session 2: Long consonants,45,19,ㅋ,3/350,voice_ml,7,ㅋ|ㄹ|ㅌ|ㅍ|ㅎ|ㅁ|ㅊ,ㅋ,0,1,0.831595900002867,0.481595900002867,,3.492511749267578,,,1780372752.3282928,1780372752.9781947,1780372755.8208046,ml_jamo,hangul_learning_results\subject_s01\voice_trials\trial_voice_1780372754540.wav,,,0.3406241999473423,1.29,"[{""label"": ""ㅌ"", ""probability"": 0.13653846153846155, ""score"": 0.13653846153846155}, {""label"": ""ㅍ"", ""probability"": 0.11153846153846154, ""score"": 0.11153846153846154}, {""label"": ""ㅋ"", ""probability"": 0.05961538461538462, ""score"": 0.05961538461538462}, {""label"": ""ㅎ"", ""probability"": 0.057692307692307696, ""score"": 0.057692307692307696}, {""label"": ""ㅊ"", ""probability"": 0.03461538461538462, ""score"": 0.03461538461538462}]",2026-06-02 12:59:15,0.35,150,250
s01,2026-06-02,2,long_consonants,Session 2: Long consonants,46,20,ㄹ,2/350,voice_ml,7,ㅋ|ㄹ|ㅌ|ㅍ|ㅎ|ㅁ|ㅊ,ㄹ,0,1,0.6427184999920428,0.2927184999920428,,3.0915427207946777,,,1780372756.1653714,1780372756.7880433,1780372759.2569141,ml_jamo,hangul_learning_results\subject_s01\voice_trials\trial_voice_1780372758323.wav,,,0.35570880002342165,1.38,"[{""label"": ""ㄹ"", ""probability"": 0.12115384615384615, ""score"": 0.12115384615384615}, {""label"": ""ㅁ"", ""probability"": 0.019230769230769232, ""score"": 0.019230769230769232}, {""label"": ""ㅎ"", ""probability"": 0.007692307692307693, ""score"": 0.007692307692307693}, {""label"": ""ㅋ"", ""probability"": 0.0038461538461538464, ""score"": 0.0038461538461538464}, {""label"": ""ㅌ"", ""probability"": 0.0019230769230769232, ""score"": 0.0019230769230769232}]",2026-06-02 12:59:19,0.35,150,250
s01,2026-06-02,2,long_consonants,Session 2: Long consonants,47,21,ㅌ,1/350,voice_ml,7,ㅋ|ㄹ|ㅌ|ㅍ|ㅎ|ㅁ|ㅊ,ㅌ,0,1,0.6240101999137551,0.2740101999137551,,2.975705146789551,,,1780372759.6811242,1780372760.3253872,1780372762.6568294,ml_jamo,hangul_learning_results\subject_s01\voice_trials\trial_voice_1780372761670.wav,,,0.37323120003566146,1.23,"[{""label"": ""ㅌ"", ""probability"": 0.14807692307692308, ""score"": 0.14807692307692308}, {""label"": ""ㅍ"", ""probability"": 0.11153846153846154, ""score"": 0.11153846153846154}, {""label"": ""ㅎ"", ""probability"": 0.06538461538461539, ""score"": 0.06538461538461539}, {""label"": ""ㅋ"", ""probability"": 0.04807692307692308, ""score"": 0.04807692307692308}, {""label"": ""ㅊ"", ""probability"": 0.032692307692307694, ""score"": 0.032692307692307694}]",2026-06-02 12:59:22,0.35,150,250
s01,2026-06-02,2,long_consonants,Session 2: Long consonants,48,22,ㅁ,9/350,voice_ml,7,ㅋ|ㄹ|ㅌ|ㅍ|ㅎ|ㅁ|ㅊ,ㅁ,0,1,2.7120701998937875,2.3620701998937874,,5.030846118927002,,,1780372763.1804152,1780372763.8366718,1780372768.2112613,ml_jamo,hangul_learning_results\subject_s01\voice_trials\trial_voice_1780372767443.wav,,,0.33842079993337393,1.47,"[{""label"": ""ㅁ"", ""probability"": 0.10576923076923078, ""score"": 0.10576923076923078}, {""label"": ""ㄹ"", ""probability"": 0.03076923076923077, ""score"": 0.03076923076923077}, {""label"": ""ㅍ"", ""probability"": 0.015384615384615385, ""score"": 0.015384615384615385}, {""label"": ""ㅌ"", ""probability"": 0.007692307692307693, ""score"": 0.007692307692307693}, {""label"": ""ㅎ"", ""probability"": 0.0038461538461538464, ""score"": 0.0038461538461538464}]",2026-06-02 12:59:28,0.35,150,250
s01,2026-06-02,2,long_consonants,Session 2: Long consonants,49,23,ㅍ,6/350,voice_ml,7,ㅋ|ㄹ|ㅌ|ㅍ|ㅎ|ㅁ|ㅊ,ㅍ,0,1,1.0847787000238895,0.7347787000238896,,3.6274466514587402,,,1780372768.6025496,1780372769.2748098,1780372772.2299962,ml_jamo,hangul_learning_results\subject_s01\voice_trials\trial_voice_1780372771064.wav,,,0.3471095999702811,1.26,"[{""label"": ""ㅌ"", ""probability"": 0.16153846153846152, ""score"": 0.16153846153846152}, {""label"": ""ㅍ"", ""probability"": 0.1423076923076923, ""score"": 0.1423076923076923}, {""label"": ""ㅎ"", ""probability"": 0.05384615384615385, ""score"": 0.05384615384615385}, {""label"": ""ㅋ"", ""probability"": 0.038461538461538464, ""score"": 0.038461538461538464}, {""label"": ""ㅊ"", ""probability"": 0.021153846153846155, ""score"": 0.021153846153846155}]",2026-06-02 12:59:32,0.35,150,250
s01,2026-06-02,2,long_consonants,Session 2: Long consonants,50,24,ㅎ,4/350,voice_ml,7,ㅋ|ㄹ|ㅌ|ㅍ|ㅎ|ㅁ|ㅊ,ㅎ,0,1,1.3027976998127997,0.9527976998127997,,3.763512372970581,,,1780372777.3049502,1780372777.947834,1780372781.0684626,ml_jamo,hangul_learning_results\subject_s01\voice_trials\trial_voice_1780372779977.wav,,,0.33943539997562766,1.26,"[{""label"": ""ㅎ"", ""probability"": 0.10192307692307692, ""score"": 0.10192307692307692}, {""label"": ""ㅌ"", ""probability"": 0.06346153846153846, ""score"": 0.06346153846153846}, {""label"": ""ㅍ"", ""probability"": 0.025, ""score"": 0.025}, {""label"": ""ㄹ"", ""probability"": 0.01730769230769231, ""score"": 0.01730769230769231}, {""label"": ""ㅋ"", ""probability"": 0.015384615384615385, ""score"": 0.015384615384615385}]",2026-06-02 12:59:41,0.35,150,250
s01,2026-06-02,2,long_consonants,Session 2: Long consonants,51,25,ㅊ,7/350,voice_ml,7,ㅋ|ㄹ|ㅌ|ㅍ|ㅎ|ㅁ|ㅊ,ㅊ,0,1,1.070624299813062,0.720624299813062,,3.3564281463623047,,,1780372781.4635653,1780372782.1172895,1780372784.8199935,ml_jamo,hangul_learning_results\subject_s01\voice_trials\trial_voice_1780372784002.wav,,,0.3329469000454992,1.35,"[{""label"": ""ㅊ"", ""probability"": 0.20576923076923076, ""score"": 0.20576923076923076}, {""label"": ""ㅋ"", ""probability"": 0.08653846153846154, ""score"": 0.08653846153846154}, {""label"": ""ㅍ"", ""probability"": 0.08461538461538462, ""score"": 0.08461538461538462}, {""label"": ""ㅌ"", ""probability"": 0.08076923076923077, ""score"": 0.08076923076923077}, {""label"": ""ㅎ"", ""probability"": 0.05576923076923077, ""score"": 0.05576923076923077}]",2026-06-02 12:59:44,0.35,150,250
s01,2026-06-02,2,long_consonants,Session 2: Long consonants,52,26,ㅋ,3/350,voice_ml,7,ㅋ|ㄹ|ㅌ|ㅍ|ㅎ|ㅁ|ㅊ,ㅋ,0,1,0.9788444000296295,0.6288444000296295,,3.3902294635772705,,,1780372785.2018847,1780372785.8539183,1780372788.5921142,ml_jamo,hangul_learning_results\subject_s01\voice_trials\trial_voice_1780372787559.wav,,,0.3343876001890749,1.26,"[{""label"": ""ㅌ"", ""probability"": 0.13076923076923075, ""score"": 0.13076923076923075}, {""label"": ""ㅋ"", ""probability"": 0.08076923076923077, ""score"": 0.08076923076923077}, {""label"": ""ㅎ"", ""probability"": 0.06923076923076923, ""score"": 0.06923076923076923}, {""label"": ""ㅍ"", ""probability"": 0.06730769230769232, ""score"": 0.06730769230769232}, {""label"": ""ㅊ"", ""probability"": 0.051923076923076926, ""score"": 0.051923076923076926}]",2026-06-02 12:59:48,0.35,150,250
s01,2026-06-02,2,long_consonants,Session 2: Long consonants,53,27,ㄹ,2/350,voice_ml,7,ㅋ|ㄹ|ㅌ|ㅍ|ㅎ|ㅁ|ㅊ,ㄹ,0,1,0.8770705000497401,0.5270705000497401,,3.456860303878784,,,1780372788.9771204,1780372789.6647508,1780372792.4339807,ml_jamo,hangul_learning_results\subject_s01\voice_trials\trial_voice_1780372791455.wav,,,0.33647039998322725,1.44,"[{""label"": ""ㄹ"", ""probability"": 0.11346153846153847, ""score"": 0.11346153846153847}, {""label"": ""ㅁ"", ""probability"": 0.05, ""score"": 0.05}, {""label"": ""ㅎ"", ""probability"": 0.019230769230769232, ""score"": 0.019230769230769232}, {""label"": ""ㅌ"", ""probability"": 0.015384615384615385, ""score"": 0.015384615384615385}, {""label"": ""ㅍ"", ""probability"": 0.009615384615384616, ""score"": 0.009615384615384616}]",2026-06-02 12:59:52,0.35,150,250
s01,2026-06-02,2,long_consonants,Session 2: Long consonants,54,28,ㅌ,1/350,voice_ml,7,ㅋ|ㄹ|ㅌ|ㅍ|ㅎ|ㅁ|ㅊ,ㅌ,0,1,0.8109190000686795,0.4609190000686795,,3.2484850883483887,,,1780372793.0723462,1780372793.743704,1780372796.3208313,ml_jamo,hangul_learning_results\subject_s01\voice_trials\trial_voice_1780372795268.wav,,,0.3309218999929726,1.29,"[{""label"": ""ㅍ"", ""probability"": 0.19615384615384615, ""score"": 0.19615384615384615}, {""label"": ""ㅌ"", ""probability"": 0.13653846153846155, ""score"": 0.13653846153846155}, {""label"": ""ㅊ"", ""probability"": 0.032692307692307694, ""score"": 0.032692307692307694}, {""label"": ""ㅋ"", ""probability"": 0.019230769230769232, ""score"": 0.019230769230769232}, {""label"": ""ㄹ"", ""probability"": 0.01730769230769231, ""score"": 0.01730769230769231}]",2026-06-02 12:59:56,0.35,150,250
s01,2026-06-02,3,double_consonants,Session 3: Double consonants,55,1,ㄲ,3/150.0/150.3/150,voice_ml,5,ㄲ|ㄸ|ㅃ|ㅆ|ㅉ,ㄲ,0,1,0.7729362000245601,0.32263620002456006,,3.9991064071655273,,,1780372797.743162,1780372799.0874999,1780372801.7422683,ml_jamo,hangul_learning_results\subject_s01\voice_trials\trial_voice_1780372800805.wav,,,0.3916753001976758,1.47,"[{""label"": ""ㄲ"", ""probability"": 0.13653846153846155, ""score"": 0.13653846153846155}, {""label"": ""ㅃ"", ""probability"": 0.08461538461538462, ""score"": 0.08461538461538462}, {""label"": ""ㅆ"", ""probability"": 0.051923076923076926, ""score"": 0.051923076923076926}, {""label"": ""ㄸ"", ""probability"": 0.025, ""score"": 0.025}, {""label"": ""ㅉ"", ""probability"": 0.01730769230769231, ""score"": 0.01730769230769231}]",2026-06-02 13:00:01,0.45030000000000003,150,250
s01,2026-06-02,3,double_consonants,Session 3: Double consonants,56,2,ㅉ,7/150.0/150.7/150,voice_ml,5,ㄲ|ㄸ|ㅃ|ㅆ|ㅉ,ㅉ,0,1,0.90504390001297,0.45434390001297,,3.7041878700256348,,,1780372802.0859861,1780372802.7277694,1780372805.790174,ml_jamo,hangul_learning_results\subject_s01\voice_trials\trial_voice_1780372804506.wav,,,0.4035759000107646,1.44,"[{""label"": ""ㅃ"", ""probability"": 0.0903846153846154, ""score"": 0.0903846153846154}, {""label"": ""ㄲ"", ""probability"": 0.07884615384615384, ""score"": 0.07884615384615384}, {""label"": ""ㅉ"", ""probability"": 0.07884615384615384, ""score"": 0.07884615384615384}, {""label"": ""ㅆ"", ""probability"": 0.06346153846153846, ""score"": 0.06346153846153846}, {""label"": ""ㄸ"", ""probability"": 0.026923076923076925, ""score"": 0.026923076923076925}]",2026-06-02 13:00:05,0.4507,150,250
s01,2026-06-02,3,double_consonants,Session 3: Double consonants,57,3,ㄸ,1/150.0/150.1/150,voice_ml,5,ㄲ|ㄸ|ㅃ|ㅆ|ㅉ,ㄸ,0,1,1.4234937999863178,0.9733937999863178,,5.0285561084747314,,,1780372806.1536317,1780372806.836304,1780372811.1821878,ml_jamo,hangul_learning_results\subject_s01\voice_trials\trial_voice_1780372809596.wav,,,0.33807789999991655,1.86,"[{""label"": ""ㅃ"", ""probability"": 0.13461538461538464, ""score"": 0.13461538461538464}, {""label"": ""ㄲ"", ""probability"": 0.06538461538461539, ""score"": 0.06538461538461539}, {""label"": ""ㅉ"", ""probability"": 0.05, ""score"": 0.05}, {""label"": ""ㅆ"", ""probability"": 0.046153846153846156, ""score"": 0.046153846153846156}, {""label"": ""ㄸ"", ""probability"": 0.028846153846153848, ""score"": 0.028846153846153848}]",2026-06-02 13:00:11,0.4501,150,250
s01,2026-06-02,3,double_consonants,Session 3: Double consonants,58,4,ㅆ,4/150.0/150.4/150,voice_ml,5,ㄲ|ㄸ|ㅃ|ㅆ|ㅉ,ㅆ,0,1,1.2065158998593688,0.7561158998593689,,4.114248037338257,,,1780372811.5081015,1780372812.149737,1780372815.6223495,ml_jamo,hangul_learning_results\subject_s01\voice_trials\trial_voice_1780372814479.wav,,,0.3376436000689864,1.65,"[{""label"": ""ㅆ"", ""probability"": 0.24807692307692308, ""score"": 0.24807692307692308}, {""label"": ""ㄲ"", ""probability"": 0.09230769230769231, ""score"": 0.09230769230769231}, {""label"": ""ㄸ"", ""probability"": 0.06538461538461539, ""score"": 0.06538461538461539}, {""label"": ""ㅉ"", ""probability"": 0.05961538461538462, ""score"": 0.05961538461538462}, {""label"": ""ㅃ"", ""probability"": 0.051923076923076926, ""score"": 0.051923076923076926}]",2026-06-02 13:00:15,0.45039999999999997,150,250
s01,2026-06-02,3,double_consonants,Session 3: Double consonants,59,5,ㅃ,6/150.0/150.6/150,voice_ml,5,ㄲ|ㄸ|ㅃ|ㅆ|ㅉ,ㅃ,0,1,0.9682150001171976,0.5176150001171976,,3.4699606895446777,,,1780372815.9933646,1780372816.6327448,1780372819.4633253,ml_jamo,hangul_learning_results\subject_s01\voice_trials\trial_voice_1780372818498.wav,,,0.34039360005408525,1.47,"[{""label"": ""ㅃ"", ""probability"": 0.1326923076923077, ""score"": 0.1326923076923077}, {""label"": ""ㄲ"", ""probability"": 0.06538461538461539, ""score"": 0.06538461538461539}, {""label"": ""ㄸ"", ""probability"": 0.03653846153846154, ""score"": 0.03653846153846154}, {""label"": ""ㅆ"", ""probability"": 0.03461538461538462, ""score"": 0.03461538461538462}, {""label"": ""ㅉ"", ""probability"": 0.021153846153846155, ""score"": 0.021153846153846155}]",2026-06-02 13:00:19,0.4506,150,250
s01,2026-06-02,3,double_consonants,Session 3: Double consonants,60,6,ㅉ,7/150.0/150.7/150,voice_ml,5,ㄲ|ㄸ|ㅃ|ㅆ|ㅉ,ㅉ,0,1,1.3312230999581516,0.8805230999581516,,4.348893642425537,,,1780372819.8515694,1780372820.5083766,1780372824.200463,ml_jamo,hangul_learning_results\subject_s01\voice_trials\trial_voice_1780372822948.wav,,,0.3337584000546485,1.68,"[{""label"": ""ㅆ"", ""probability"": 0.15576923076923077, ""score"": 0.15576923076923077}, {""label"": ""ㄲ"", ""probability"": 0.11923076923076924, ""score"": 0.11923076923076924}, {""label"": ""ㅉ"", ""probability"": 0.11346153846153847, ""score"": 0.11346153846153847}, {""label"": ""ㅃ"", ""probability"": 0.0903846153846154, ""score"": 0.0903846153846154}, {""label"": ""ㄸ"", ""probability"": 0.05961538461538462, ""score"": 0.05961538461538462}]",2026-06-02 13:00:24,0.4507,150,250
s01,2026-06-02,3,double_consonants,Session 3: Double consonants,61,7,ㅃ,6/150.0/150.6/150,voice_ml,5,ㄲ|ㄸ|ㅃ|ㅆ|ㅉ,ㅃ,0,1,0.8994811000302434,0.4488811000302434,,3.25348162651062,,,1780372824.521305,1780372825.179994,1780372827.7747867,ml_jamo,hangul_learning_results\subject_s01\voice_trials\trial_voice_1780372827029.wav,,,0.3444905001670122,1.47,"[{""label"": ""ㅃ"", ""probability"": 0.15192307692307694, ""score"": 0.15192307692307694}, {""label"": ""ㄲ"", ""probability"": 0.125, ""score"": 0.125}, {""label"": ""ㅆ"", ""probability"": 0.046153846153846156, ""score"": 0.046153846153846156}, {""label"": ""ㅉ"", ""probability"": 0.038461538461538464, ""score"": 0.038461538461538464}, {""label"": ""ㄸ"", ""probability"": 0.03653846153846154, ""score"": 0.03653846153846154}]",2026-06-02 13:00:27,0.4506,150,250
s01,2026-06-02,3,double_consonants,Session 3: Double consonants,62,8,ㄲ,3/150.0/150.3/150,voice_ml,5,ㄲ|ㄸ|ㅃ|ㅆ|ㅉ,ㄲ,0,1,0.8141404998023063,0.36384049980230626,,3.4639792442321777,,,1780372828.1640902,1780372828.8827586,1780372831.6280694,ml_jamo,hangul_learning_results\subject_s01\voice_trials\trial_voice_1780372830616.wav,,,0.36791469994932413,1.5,"[{""label"": ""ㅃ"", ""probability"": 0.13653846153846155, ""score"": 0.13653846153846155}, {""label"": ""ㄲ"", ""probability"": 0.12115384615384615, ""score"": 0.12115384615384615}, {""label"": ""ㅆ"", ""probability"": 0.07692307692307693, ""score"": 0.07692307692307693}, {""label"": ""ㅉ"", ""probability"": 0.04038461538461539, ""score"": 0.04038461538461539}, {""label"": ""ㄸ"", ""probability"": 0.028846153846153848, ""score"": 0.028846153846153848}]",2026-06-02 13:00:31,0.45030000000000003,150,250
s01,2026-06-02,3,double_consonants,Session 3: Double consonants,63,9,ㅆ,4/150.0/150.4/150,voice_ml,5,ㄲ|ㄸ|ㅃ|ㅆ|ㅉ,ㅆ,0,1,0.9312160999979824,0.4808160999979824,,3.342066764831543,,,1780372831.9890547,1780372832.6456094,1780372835.3311214,ml_jamo,hangul_learning_results\subject_s01\voice_trials\trial_voice_1780372834476.wav,,,0.3756266001146287,1.47,"[{""label"": ""ㅆ"", ""probability"": 0.11538461538461539, ""score"": 0.11538461538461539}, {""label"": ""ㄲ"", ""probability"": 0.08846153846153847, ""score"": 0.08846153846153847}, {""label"": ""ㅉ"", ""probability"": 0.06923076923076923, ""score"": 0.06923076923076923}, {""label"": ""ㅃ"", ""probability"": 0.06538461538461539, ""score"": 0.06538461538461539}, {""label"": ""ㄸ"", ""probability"": 0.03461538461538462, ""score"": 0.03461538461538462}]",2026-06-02 13:00:35,0.45039999999999997,150,250
s01,2026-06-02,3,double_consonants,Session 3: Double consonants,64,10,ㄸ,1/150.0/150.1/150,voice_ml,5,ㄲ|ㄸ|ㅃ|ㅆ|ㅉ,ㄸ,0,1,0.7594413999468088,0.3093413999468088,,3.534235954284668,,,1780372835.6966228,1780372836.348223,1780372839.2308588,ml_jamo,hangul_learning_results\subject_s01\voice_trials\trial_voice_1780372838076.wav,,,0.33909810008481145,1.53,"[{""label"": ""ㅃ"", ""probability"": 0.19615384615384615, ""score"": 0.19615384615384615}, {""label"": ""ㄲ"", ""probability"": 0.11730769230769231, ""score"": 0.11730769230769231}, {""label"": ""ㄸ"", ""probability"": 0.051923076923076926, ""score"": 0.051923076923076926}, {""label"": ""ㅉ"", ""probability"": 0.04807692307692308, ""score"": 0.04807692307692308}, {""label"": ""ㅆ"", ""probability"": 0.025, ""score"": 0.025}]",2026-06-02 13:00:39,0.4501,150,250
s01,2026-06-02,4,all_consonants,Session 4: All consonants,65,1,ㅅ,4/150,voice_ml,19,ㄱ|ㄴ|ㄷ|ㅂ|ㅅ|ㅇ|ㅈ|ㅋ|ㄹ|ㅌ|ㅍ|ㅎ|ㅁ|ㅊ|ㄲ|ㄸ|ㅃ|ㅆ|ㅉ,ㅅ,0,1,1.1164718000218272,0.9664718000218272,,4.669180631637573,,,1780372939.3074155,1780372940.545894,1780372943.976596,ml_jamo,hangul_learning_results\subject_s01\voice_trials\trial_voice_1780372942379.wav,,,0.36398250004276633,1.26,"[{""label"": ""ㅆ"", ""probability"": 0.09615384615384616, ""score"": 0.09615384615384616}, {""label"": ""ㅈ"", ""probability"": 0.07307692307692308, ""score"": 0.07307692307692308}, {""label"": ""ㅉ"", ""probability"": 0.07115384615384615, ""score"": 0.07115384615384615}, {""label"": ""ㅅ"", ""probability"": 0.06730769230769232, ""score"": 0.06730769230769232}, {""label"": ""ㅌ"", ""probability"": 0.06538461538461539, ""score"": 0.06538461538461539}]",2026-06-02 13:02:23,0.15,150,250
s01,2026-06-02,4,all_consonants,Session 4: All consonants,66,2,ㅎ,4/350,voice_ml,19,ㄱ|ㄴ|ㄷ|ㅂ|ㅅ|ㅇ|ㅈ|ㅋ|ㄹ|ㅌ|ㅍ|ㅎ|ㅁ|ㅊ|ㄲ|ㄸ|ㅃ|ㅆ|ㅉ,ㅎ,1,1,1.4811893999576569,1.1311893999576568,,6.815356254577637,,,1780372944.4079862,1780372945.0547059,1780372951.2233424,ml_jamo,hangul_learning_results\subject_s01\voice_trials\trial_voice_1780372948026.wav,,,0.37312790006399155,2.01,"[{""label"": ""ㄲ"", ""probability"": 0.16153846153846152, ""score"": 0.16153846153846152}, {""label"": ""ㅃ"", ""probability"": 0.14423076923076922, ""score"": 0.14423076923076922}, {""label"": ""ㅆ"", ""probability"": 0.05, ""score"": 0.05}, {""label"": ""ㅉ"", ""probability"": 0.03653846153846154, ""score"": 0.03653846153846154}, {""label"": ""ㄱ"", ""probability"": 0.032692307692307694, ""score"": 0.032692307692307694}]",2026-06-02 13:02:31,0.35,150,250
s01,2026-06-02,4,all_consonants,Session 4: All consonants,67,3,ㅍ,6/350,voice_ml,19,ㄱ|ㄴ|ㄷ|ㅂ|ㅅ|ㅇ|ㅈ|ㅋ|ㄹ|ㅌ|ㅍ|ㅎ|ㅁ|ㅊ|ㄲ|ㄸ|ㅃ|ㅆ|ㅉ,ㄱ,0,0,1.8705537000205368,1.5205537000205367,,4.074751138687134,,,1780372952.2465713,1780372952.9630811,1780372956.3213224,ml_jamo,hangul_learning_results\subject_s01\voice_trials\trial_voice_1780372955518.wav,,,0.3592725999187678,1.26,"[{""label"": ""ㄱ"", ""probability"": 0.125, ""score"": 0.125}, {""label"": ""ㄷ"", ""probability"": 0.06346153846153846, ""score"": 0.06346153846153846}, {""label"": ""ㅃ"", ""probability"": 0.057692307692307696, ""score"": 0.057692307692307696}, {""label"": ""ㄲ"", ""probability"": 0.05576923076923077, ""score"": 0.05576923076923077}, {""label"": ""ㅌ"", ""probability"": 0.046153846153846156, ""score"": 0.046153846153846156}]",2026-06-02 13:02:36,0.35,150,250
s01,2026-06-02,4,all_consonants,Session 4: All consonants,68,4,ㅉ,7/150.0/150.7/150,voice_ml,19,ㄱ|ㄴ|ㄷ|ㅂ|ㅅ|ㅇ|ㅈ|ㅋ|ㄹ|ㅌ|ㅍ|ㅎ|ㅁ|ㅊ|ㄲ|ㄸ|ㅃ|ㅆ|ㅉ,ㅉ,0,1,1.744048499967903,1.293348499967903,,5.204905033111572,,,1780372965.633169,1780372966.3197572,1780372970.838074,ml_jamo,hangul_learning_results\subject_s01\voice_trials\trial_voice_1780372968992.wav,,,0.3597289000172168,1.47,"[{""label"": ""ㅆ"", ""probability"": 0.13076923076923078, ""score"": 0.13076923076923078}, {""label"": ""ㄲ"", ""probability"": 0.11730769230769231, ""score"": 0.11730769230769231}, {""label"": ""ㅉ"", ""probability"": 0.1076923076923077, ""score"": 0.1076923076923077}, {""label"": ""ㅃ"", ""probability"": 0.05576923076923077, ""score"": 0.05576923076923077}, {""label"": ""ㄸ"", ""probability"": 0.04230769230769231, ""score"": 0.04230769230769231}]",2026-06-02 13:02:50,0.4507,150,250
s01,2026-06-02,4,all_consonants,Session 4: All consonants,69,5,ㄸ,1/150.0/150.1/150,voice_ml,19,ㄱ|ㄴ|ㄷ|ㅂ|ㅅ|ㅇ|ㅈ|ㅋ|ㄹ|ㅌ|ㅍ|ㅎ|ㅁ|ㅊ|ㄲ|ㄸ|ㅃ|ㅆ|ㅉ,ㄸ,0,1,0.9682244998402894,0.5181244998402894,,3.6720008850097656,,,1780372971.5799663,1780372972.2271233,1780372975.2519672,ml_jamo,hangul_learning_results\subject_s01\voice_trials\trial_voice_1780372974008.wav,,,0.3478702998254448,1.41,"[{""label"": ""ㅃ"", ""probability"": 0.11538461538461539, ""score"": 0.11538461538461539}, {""label"": ""ㅉ"", ""probability"": 0.07115384615384615, ""score"": 0.07115384615384615}, {""label"": ""ㄸ"", ""probability"": 0.06153846153846154, ""score"": 0.06153846153846154}, {""label"": ""ㄷ"", ""probability"": 0.057692307692307696, ""score"": 0.057692307692307696}, {""label"": ""ㅎ"", ""probability"": 0.057692307692307696, ""score"": 0.057692307692307696}]",2026-06-02 13:02:55,0.4501,150,250
s01,2026-06-02,4,all_consonants,Session 4: All consonants,70,6,ㅌ,1/350,voice_ml,19,ㄱ|ㄴ|ㄷ|ㅂ|ㅅ|ㅇ|ㅈ|ㅋ|ㄹ|ㅌ|ㅍ|ㅎ|ㅁ|ㅊ|ㄲ|ㄸ|ㅃ|ㅆ|ㅉ,ㅌ,0,1,1.4028415000066161,1.052841500006616,,3.626026153564453,,,1780372975.569415,1780372976.2433748,1780372979.1954412,ml_jamo,hangul_learning_results\subject_s01\voice_trials\trial_voice_1780372978330.wav,,,0.35146969999186695,1.26,"[{""label"": ""ㅌ"", ""probability"": 0.12884615384615383, ""score"": 0.12884615384615383}, {""label"": ""ㅎ"", ""probability"": 0.1, ""score"": 0.1}, {""label"": ""ㅈ"", ""probability"": 0.07500000000000001, ""score"": 0.07500000000000001}, {""label"": ""ㅍ"", ""probability"": 0.07307692307692308, ""score"": 0.07307692307692308}, {""label"": ""ㄱ"", ""probability"": 0.07115384615384615, ""score"": 0.07115384615384615}]",2026-06-02 13:02:59,0.35,150,250
s01,2026-06-02,4,all_consonants,Session 4: All consonants,71,7,ㅃ,6/150.0/150.6/150,voice_ml,19,ㄱ|ㄴ|ㄷ|ㅂ|ㅅ|ㅇ|ㅈ|ㅋ|ㄹ|ㅌ|ㅍ|ㅎ|ㅁ|ㅊ|ㄲ|ㄸ|ㅃ|ㅆ|ㅉ,ㅃ,0,1,1.2032359999138862,0.7526359999138862,,3.6075313091278076,,,1780372979.526578,1780372980.1651142,1780372983.1341093,ml_jamo,hangul_learning_results\subject_s01\voice_trials\trial_voice_1780372982223.wav,,,0.3576953001320362,1.44,"[{""label"": ""ㅃ"", ""probability"": 0.12884615384615386, ""score"": 0.12884615384615386}, {""label"": ""ㄲ"", ""probability"": 0.05, ""score"": 0.05}, {""label"": ""ㄴ"", ""probability"": 0.04230769230769231, ""score"": 0.04230769230769231}, {""label"": ""ㄷ"", ""probability"": 0.03461538461538462, ""score"": 0.03461538461538462}, {""label"": ""ㅇ"", ""probability"": 0.03461538461538462, ""score"": 0.03461538461538462}]",2026-06-02 13:03:03,0.4506,150,250
s01,2026-06-02,4,all_consonants,Session 4: All consonants,72,8,ㄱ,3/150,voice_ml,19,ㄱ|ㄴ|ㄷ|ㅂ|ㅅ|ㅇ|ㅈ|ㅋ|ㄹ|ㅌ|ㅍ|ㅎ|ㅁ|ㅊ|ㄲ|ㄸ|ㅃ|ㅆ|ㅉ,ㄱ,0,1,0.9346500001847744,0.7846500001847744,,3.237816333770752,,,1780372983.585877,1780372984.2512376,1780372986.8236933,ml_jamo,hangul_learning_results\subject_s01\voice_trials\trial_voice_1780372985808.wav,,,0.354579099919647,1.2,"[{""label"": ""ㄱ"", ""probability"": 0.14423076923076922, ""score"": 0.14423076923076922}, {""label"": ""ㅍ"", ""probability"": 0.1326923076923077, ""score"": 0.1326923076923077}, {""label"": ""ㅌ"", ""probability"": 0.07307692307692308, ""score"": 0.07307692307692308}, {""label"": ""ㅈ"", ""probability"": 0.046153846153846156, ""score"": 0.046153846153846156}, {""label"": ""ㅂ"", ""probability"": 0.04423076923076923, ""score"": 0.04423076923076923}]",2026-06-02 13:03:06,0.15,150,250
s01,2026-06-02,4,all_consonants,Session 4: All consonants,73,9,ㄲ,3/150.0/150.3/150,voice_ml,19,ㄱ|ㄴ|ㄷ|ㅂ|ㅅ|ㅇ|ㅈ|ㅋ|ㄹ|ㅌ|ㅍ|ㅎ|ㅁ|ㅊ|ㄲ|ㄸ|ㅃ|ㅆ|ㅉ,ㄲ,0,1,1.024243599968031,0.573943599968031,,3.508636951446533,,,1780372987.160081,1780372987.8358753,1780372990.6687179,ml_jamo,hangul_learning_results\subject_s01\voice_trials\trial_voice_1780372989828.wav,,,0.3791318000294268,1.5,"[{""label"": ""ㄲ"", ""probability"": 0.14615384615384616, ""score"": 0.14615384615384616}, {""label"": ""ㅆ"", ""probability"": 0.14615384615384613, ""score"": 0.14615384615384613}, {""label"": ""ㅃ"", ""probability"": 0.09615384615384616, ""score"": 0.09615384615384616}, {""label"": ""ㅉ"", ""probability"": 0.05, ""score"": 0.05}, {""label"": ""ㄸ"", ""probability"": 0.04038461538461539, ""score"": 0.04038461538461539}]",2026-06-02 13:03:10,0.45030000000000003,150,250
s01,2026-06-02,4,all_consonants,Session 4: All consonants,74,10,ㄹ,2/350,voice_ml,19,ㄱ|ㄴ|ㄷ|ㅂ|ㅅ|ㅇ|ㅈ|ㅋ|ㄹ|ㅌ|ㅍ|ㅎ|ㅁ|ㅊ|ㄲ|ㄸ|ㅃ|ㅆ|ㅉ,ㄹ,0,1,1.0036527998745441,0.6536527998745442,,3.5221822261810303,,,1780372991.0509832,1780372991.6900504,1780372994.5731654,ml_jamo,hangul_learning_results\subject_s01\voice_trials\trial_voice_1780372993639.wav,,,0.33865009993314743,1.47,"[{""label"": ""ㅇ"", ""probability"": 0.07692307692307693, ""score"": 0.07692307692307693}, {""label"": ""ㄹ"", ""probability"": 0.07115384615384615, ""score"": 0.07115384615384615}, {""label"": ""ㄴ"", ""probability"": 0.05384615384615385, ""score"": 0.05384615384615385}, {""label"": ""ㅁ"", ""probability"": 0.05384615384615385, ""score"": 0.05384615384615385}, {""label"": ""ㄷ"", ""probability"": 0.021153846153846155, ""score"": 0.021153846153846155}]",2026-06-02 13:03:14,0.35,150,250
s01,2026-06-02,4,all_consonants,Session 4: All consonants,75,11,ㅈ,7/150,voice_ml,19,ㄱ|ㄴ|ㄷ|ㅂ|ㅅ|ㅇ|ㅈ|ㅋ|ㄹ|ㅌ|ㅍ|ㅎ|ㅁ|ㅊ|ㄲ|ㄸ|ㅃ|ㅆ|ㅉ,ㅈ,0,1,2.017606799956411,1.8676067999564112,,4.309890270233154,,,1780372995.2559373,1780372995.9153285,1780372999.5658276,ml_jamo,hangul_learning_results\subject_s01\voice_trials\trial_voice_1780372998760.wav,,,0.3510243999771774,1.35,"[{""label"": ""ㅈ"", ""probability"": 0.25, ""score"": 0.25}, {""label"": ""ㅊ"", ""probability"": 0.10576923076923077, ""score"": 0.10576923076923077}, {""label"": ""ㅋ"", ""probability"": 0.09615384615384616, ""score"": 0.09615384615384616}, {""label"": ""ㅅ"", ""probability"": 0.05961538461538462, ""score"": 0.05961538461538462}, {""label"": ""ㅌ"", ""probability"": 0.04807692307692308, ""score"": 0.04807692307692308}]",2026-06-02 13:03:19,0.15,150,250
s01,2026-06-02,4,all_consonants,Session 4: All consonants,76,12,ㅇ,9/150,voice_ml,19,ㄱ|ㄴ|ㄷ|ㅂ|ㅅ|ㅇ|ㅈ|ㅋ|ㄹ|ㅌ|ㅍ|ㅎ|ㅁ|ㅊ|ㄲ|ㄸ|ㅃ|ㅆ|ㅉ,ㅇ,0,1,0.7144472000654787,0.5644472000654787,,3.188460350036621,,,1780372999.9294195,1780373000.577002,1780373003.1178799,ml_jamo,hangul_learning_results\subject_s01\voice_trials\trial_voice_1780373002271.wav,,,0.36464220006018877,1.5,"[{""label"": ""ㅇ"", ""probability"": 0.15384615384615385, ""score"": 0.15384615384615385}, {""label"": ""ㄴ"", ""probability"": 0.06923076923076923, ""score"": 0.06923076923076923}, {""label"": ""ㅁ"", ""probability"": 0.04423076923076923, ""score"": 0.04423076923076923}, {""label"": ""ㄹ"", ""probability"": 0.04230769230769231, ""score"": 0.04230769230769231}, {""label"": ""ㅂ"", ""probability"": 0.021153846153846155, ""score"": 0.021153846153846155}]",2026-06-02 13:03:23,0.15,150,250
s01,2026-06-02,4,all_consonants,Session 4: All consonants,77,13,ㄴ,2/150,voice_ml,19,ㄱ|ㄴ|ㄷ|ㅂ|ㅅ|ㅇ|ㅈ|ㅋ|ㄹ|ㅌ|ㅍ|ㅎ|ㅁ|ㅊ|ㄲ|ㄸ|ㅃ|ㅆ|ㅉ,ㄴ,0,1,0.8526908999774605,0.7026908999774605,,3.904700517654419,,,1780373003.486489,1780373004.1312494,1780373007.3911896,ml_jamo,hangul_learning_results\subject_s01\voice_trials\trial_voice_1780373006346.wav,,,0.37661060015670955,1.89,"[{""label"": ""ㄹ"", ""probability"": 0.1346153846153846, ""score"": 0.1346153846153846}, {""label"": ""ㄴ"", ""probability"": 0.13076923076923075, ""score"": 0.13076923076923075}, {""label"": ""ㅁ"", ""probability"": 0.12115384615384617, ""score"": 0.12115384615384617}, {""label"": ""ㅇ"", ""probability"": 0.08846153846153847, ""score"": 0.08846153846153847}, {""label"": ""ㅂ"", ""probability"": 0.03461538461538462, ""score"": 0.03461538461538462}]",2026-06-02 13:03:27,0.15,150,250
s01,2026-06-02,4,all_consonants,Session 4: All consonants,78,14,ㅂ,6/150,voice_ml,19,ㄱ|ㄴ|ㄷ|ㅂ|ㅅ|ㅇ|ㅈ|ㅋ|ㄹ|ㅌ|ㅍ|ㅎ|ㅁ|ㅊ|ㄲ|ㄸ|ㅃ|ㅆ|ㅉ,ㅂ,0,1,1.0575739999767393,0.9075739999767393,,3.6558728218078613,,,1780373008.0556064,1780373008.7112243,1780373011.7114792,ml_jamo,hangul_learning_results\subject_s01\voice_trials\trial_voice_1780373010535.wav,,,0.3309436999261379,1.35,"[{""label"": ""ㅇ"", ""probability"": 0.06538461538461539, ""score"": 0.06538461538461539}, {""label"": ""ㄴ"", ""probability"": 0.06153846153846154, ""score"": 0.06153846153846154}, {""label"": ""ㅂ"", ""probability"": 0.057692307692307696, ""score"": 0.057692307692307696}, {""label"": ""ㄷ"", ""probability"": 0.05576923076923077, ""score"": 0.05576923076923077}, {""label"": ""ㅁ"", ""probability"": 0.04423076923076923, ""score"": 0.04423076923076923}]",2026-06-02 13:03:31,0.15,150,250
s01,2026-06-02,4,all_consonants,Session 4: All consonants,79,15,ㄷ,1/150,voice_ml,19,ㄱ|ㄴ|ㄷ|ㅂ|ㅅ|ㅇ|ㅈ|ㅋ|ㄹ|ㅌ|ㅍ|ㅎ|ㅁ|ㅊ|ㄲ|ㄸ|ㅃ|ㅆ|ㅉ,ㄷ,0,1,0.9460593999829143,0.7960593999829143,,3.1058475971221924,,,1780373012.0768805,1780373012.7114766,1780373015.182728,ml_jamo,hangul_learning_results\subject_s01\voice_trials\trial_voice_1780373014385.wav,,,0.3294476999435574,1.26,"[{""label"": ""ㄷ"", ""probability"": 0.0826923076923077, ""score"": 0.0826923076923077}, {""label"": ""ㅃ"", ""probability"": 0.07692307692307693, ""score"": 0.07692307692307693}, {""label"": ""ㅂ"", ""probability"": 0.06730769230769232, ""score"": 0.06730769230769232}, {""label"": ""ㅁ"", ""probability"": 0.05961538461538462, ""score"": 0.05961538461538462}, {""label"": ""ㄴ"", ""probability"": 0.05384615384615385, ""score"": 0.05384615384615385}]",2026-06-02 13:03:35,0.15,150,250
s01,2026-06-02,4,all_consonants,Session 4: All consonants,80,16,ㅋ,3/350,voice_ml,19,ㄱ|ㄴ|ㄷ|ㅂ|ㅅ|ㅇ|ㅈ|ㅋ|ㄹ|ㅌ|ㅍ|ㅎ|ㅁ|ㅊ|ㄲ|ㄸ|ㅃ|ㅆ|ㅉ,ㄲ,0,0,0.9234080000314862,0.5734080000314862,,3.6444716453552246,,,1780373015.5706785,1780373016.2248695,1780373019.21515,ml_jamo,hangul_learning_results\subject_s01\voice_trials\trial_voice_1780373018105.wav,,,0.40938669978640974,1.53,"[{""label"": ""ㅃ"", ""probability"": 0.1076923076923077, ""score"": 0.1076923076923077}, {""label"": ""ㄲ"", ""probability"": 0.08846153846153847, ""score"": 0.08846153846153847}, {""label"": ""ㄴ"", ""probability"": 0.04230769230769231, ""score"": 0.04230769230769231}, {""label"": ""ㅁ"", ""probability"": 0.028846153846153848, ""score"": 0.028846153846153848}, {""label"": ""ㄸ"", ""probability"": 0.026923076923076925, ""score"": 0.026923076923076925}]",2026-06-02 13:03:39,0.35,150,250
s01,2026-06-02,4,all_consonants,Session 4: All consonants,81,17,ㅁ,9/350,voice_ml,19,ㄱ|ㄴ|ㄷ|ㅂ|ㅅ|ㅇ|ㅈ|ㅋ|ㄹ|ㅌ|ㅍ|ㅎ|ㅁ|ㅊ|ㄲ|ㄸ|ㅃ|ㅆ|ㅉ,ㅁ,0,1,1.3848383999429643,1.0348383999429642,,3.7496485710144043,,,1780373020.1954024,1780373020.853372,1780373023.945051,ml_jamo,hangul_learning_results\subject_s01\voice_trials\trial_voice_1780373023133.wav,,,0.33144219988025725,1.47,"[{""label"": ""ㅁ"", ""probability"": 0.13076923076923078, ""score"": 0.13076923076923078}, {""label"": ""ㅇ"", ""probability"": 0.13076923076923078, ""score"": 0.13076923076923078}, {""label"": ""ㄴ"", ""probability"": 0.09807692307692309, ""score"": 0.09807692307692309}, {""label"": ""ㄹ"", ""probability"": 0.03461538461538462, ""score"": 0.03461538461538462}, {""label"": ""ㅂ"", ""probability"": 0.015384615384615385, ""score"": 0.015384615384615385}]",2026-06-02 13:03:43,0.35,150,250
s01,2026-06-02,4,all_consonants,Session 4: All consonants,82,18,ㅆ,4/150.0/150.4/150,voice_ml,19,ㄱ|ㄴ|ㄷ|ㅂ|ㅅ|ㅇ|ㅈ|ㅋ|ㄹ|ㅌ|ㅍ|ㅎ|ㅁ|ㅊ|ㄲ|ㄸ|ㅃ|ㅆ|ㅉ,ㅆ,0,1,1.0585723998956382,0.6081723998956383,,3.823585271835327,,,1780373024.5801215,1780373025.2416246,1780373028.4037068,ml_jamo,hangul_learning_results\subject_s01\voice_trials\trial_voice_1780373027366.wav,,,0.3366658000741154,1.59,"[{""label"": ""ㅆ"", ""probability"": 0.16538461538461538, ""score"": 0.16538461538461538}, {""label"": ""ㄲ"", ""probability"": 0.08846153846153847, ""score"": 0.08846153846153847}, {""label"": ""ㅉ"", ""probability"": 0.07500000000000001, ""score"": 0.07500000000000001}, {""label"": ""ㅃ"", ""probability"": 0.05961538461538462, ""score"": 0.05961538461538462}, {""label"": ""ㄸ"", ""probability"": 0.04423076923076923, ""score"": 0.04423076923076923}]",2026-06-02 13:03:48,0.45039999999999997,150,250
s01,2026-06-02,4,all_consonants,Session 4: All consonants,83,19,ㅊ,7/350,voice_ml,19,ㄱ|ㄴ|ㄷ|ㅂ|ㅅ|ㅇ|ㅈ|ㅋ|ㄹ|ㅌ|ㅍ|ㅎ|ㅁ|ㅊ|ㄲ|ㄸ|ㅃ|ㅆ|ㅉ,ㅊ,0,1,1.8191845999099314,1.4691845999099313,,4.157399892807007,,,1780373028.7732415,1780373029.4338417,1780373032.9306414,ml_jamo,hangul_learning_results\subject_s01\voice_trials\trial_voice_1780373032108.wav,,,0.3388843999709934,1.38,"[{""label"": ""ㅊ"", ""probability"": 0.30192307692307696, ""score"": 0.30192307692307696}, {""label"": ""ㅅ"", ""probability"": 0.12115384615384617, ""score"": 0.12115384615384617}, {""label"": ""ㅈ"", ""probability"": 0.11538461538461539, ""score"": 0.11538461538461539}, {""label"": ""ㅋ"", ""probability"": 0.05961538461538462, ""score"": 0.05961538461538462}, {""label"": ""ㅍ"", ""probability"": 0.04807692307692308, ""score"": 0.04807692307692308}]",2026-06-02 13:03:52,0.35,150,250
s01,2026-06-02,4,all_consonants,Session 4: All consonants,84,20,ㄸ,1/150.0/150.1/150,voice_ml,19,ㄱ|ㄴ|ㄷ|ㅂ|ㅅ|ㅇ|ㅈ|ㅋ|ㄹ|ㅌ|ㅍ|ㅎ|ㅁ|ㅊ|ㄲ|ㄸ|ㅃ|ㅆ|ㅉ,ㄸ,1,1,1.144849100150168,0.694749100150168,,6.531670093536377,,,1780373033.3054051,1780373033.9475205,1780373039.8370752,ml_jamo,hangul_learning_results\subject_s01\voice_trials\trial_voice_1780373035956.wav,,,0.3413905999623239,1.44,"[{""label"": ""ㅃ"", ""probability"": 0.08461538461538462, ""score"": 0.08461538461538462}, {""label"": ""ㅉ"", ""probability"": 0.04807692307692308, ""score"": 0.04807692307692308}, {""label"": ""ㄲ"", ""probability"": 0.038461538461538464, ""score"": 0.038461538461538464}, {""label"": ""ㄷ"", ""probability"": 0.03461538461538462, ""score"": 0.03461538461538462}, {""label"": ""ㄹ"", ""probability"": 0.028846153846153848, ""score"": 0.028846153846153848}]",2026-06-02 13:03:59,0.4501,150,250
s01,2026-06-02,4,all_consonants,Session 4: All consonants,85,21,ㅌ,1/350,voice_ml,19,ㄱ|ㄴ|ㄷ|ㅂ|ㅅ|ㅇ|ㅈ|ㅋ|ㄹ|ㅌ|ㅍ|ㅎ|ㅁ|ㅊ|ㄲ|ㄸ|ㅃ|ㅆ|ㅉ,ㅌ,0,1,1.1135911999735981,0.7635911999735981,,3.9030673503875732,,,1780373040.7457173,1780373041.4865313,1780373044.6487846,ml_jamo,hangul_learning_results\subject_s01\voice_trials\trial_voice_1780373043359.wav,,,0.38637979980558157,1.29,"[{""label"": ""ㅎ"", ""probability"": 0.17307692307692307, ""score"": 0.17307692307692307}, {""label"": ""ㅌ"", ""probability"": 0.1076923076923077, ""score"": 0.1076923076923077}, {""label"": ""ㅈ"", ""probability"": 0.09230769230769231, ""score"": 0.09230769230769231}, {""label"": ""ㄷ"", ""probability"": 0.07500000000000001, ""score"": 0.07500000000000001}, {""label"": ""ㅍ"", ""probability"": 0.04807692307692308, ""score"": 0.04807692307692308}]",2026-06-02 13:04:04,0.35,150,250
s01,2026-06-02,4,all_consonants,Session 4: All consonants,86,22,ㅊ,7/350,voice_ml,19,ㄱ|ㄴ|ㄷ|ㅂ|ㅅ|ㅇ|ㅈ|ㅋ|ㄹ|ㅌ|ㅍ|ㅎ|ㅁ|ㅊ|ㄲ|ㄸ|ㅃ|ㅆ|ㅉ,ㅊ,0,1,2.081918800016865,1.731918800016865,,4.805867671966553,,,1780373045.0556893,1780373045.7274573,1780373049.861557,ml_jamo,hangul_learning_results\subject_s01\voice_trials\trial_voice_1780373048633.wav,,,0.34605380007997155,1.41,"[{""label"": ""ㅈ"", ""probability"": 0.1326923076923077, ""score"": 0.1326923076923077}, {""label"": ""ㅉ"", ""probability"": 0.11730769230769231, ""score"": 0.11730769230769231}, {""label"": ""ㅊ"", ""probability"": 0.07884615384615384, ""score"": 0.07884615384615384}, {""label"": ""ㅆ"", ""probability"": 0.07692307692307693, ""score"": 0.07692307692307693}, {""label"": ""ㅋ"", ""probability"": 0.06538461538461539, ""score"": 0.06538461538461539}]",2026-06-02 13:04:09,0.35,150,250
s01,2026-06-02,4,all_consonants,Session 4: All consonants,87,23,ㅇ,9/150,voice_ml,19,ㄱ|ㄴ|ㄷ|ㅂ|ㅅ|ㅇ|ㅈ|ㅋ|ㄹ|ㅌ|ㅍ|ㅎ|ㅁ|ㅊ|ㄲ|ㄸ|ㅃ|ㅆ|ㅉ,ㅇ,0,1,1.2042004000395536,1.0542004000395537,,3.5621511936187744,,,1780373050.1813927,1780373050.8206038,1780373053.7435439,ml_jamo,hangul_learning_results\subject_s01\voice_trials\trial_voice_1780373052910.wav,,,0.3303759000264108,1.47,"[{""label"": ""ㅇ"", ""probability"": 0.15384615384615385, ""score"": 0.15384615384615385}, {""label"": ""ㄴ"", ""probability"": 0.06538461538461539, ""score"": 0.06538461538461539}, {""label"": ""ㅁ"", ""probability"": 0.04423076923076923, ""score"": 0.04423076923076923}, {""label"": ""ㅂ"", ""probability"": 0.038461538461538464, ""score"": 0.038461538461538464}, {""label"": ""ㄹ"", ""probability"": 0.03461538461538462, ""score"": 0.03461538461538462}]",2026-06-02 13:04:13,0.15,150,250
s01,2026-06-02,4,all_consonants,Session 4: All consonants,88,24,ㄷ,1/150,voice_ml,19,ㄱ|ㄴ|ㄷ|ㅂ|ㅅ|ㅇ|ㅈ|ㅋ|ㄹ|ㅌ|ㅍ|ㅎ|ㅁ|ㅊ|ㄲ|ㄸ|ㅃ|ㅆ|ㅉ,ㄷ,0,1,0.9955453998409212,0.8455453998409211,,3.2460756301879883,,,1780373054.3428907,1780373054.9933617,1780373057.5889664,ml_jamo,hangul_learning_results\subject_s01\voice_trials\trial_voice_1780373056603.wav,,,0.32943179993890226,1.2,"[{""label"": ""ㅌ"", ""probability"": 0.11730769230769231, ""score"": 0.11730769230769231}, {""label"": ""ㄷ"", ""probability"": 0.10192307692307692, ""score"": 0.10192307692307692}, {""label"": ""ㅍ"", ""probability"": 0.08846153846153847, ""score"": 0.08846153846153847}, {""label"": ""ㅈ"", ""probability"": 0.06153846153846154, ""score"": 0.06153846153846154}, {""label"": ""ㅎ"", ""probability"": 0.06153846153846154, ""score"": 0.06153846153846154}]",2026-06-02 13:04:17,0.15,150,250
s01,2026-06-02,4,all_consonants,Session 4: All consonants,89,25,ㅂ,6/150,voice_ml,19,ㄱ|ㄴ|ㄷ|ㅂ|ㅅ|ㅇ|ㅈ|ㅋ|ㄹ|ㅌ|ㅍ|ㅎ|ㅁ|ㅊ|ㄲ|ㄸ|ㅃ|ㅆ|ㅉ,ㅂ,0,1,1.4146996000781655,1.2646996000781656,,4.262489557266235,,,1780373057.9934437,1780373058.6582792,1780373062.2559333,ml_jamo,hangul_learning_results\subject_s01\voice_trials\trial_voice_1780373060779.wav,,,0.3323537998367101,1.29,"[{""label"": ""ㅇ"", ""probability"": 0.08076923076923077, ""score"": 0.08076923076923077}, {""label"": ""ㅁ"", ""probability"": 0.07692307692307693, ""score"": 0.07692307692307693}, {""label"": ""ㄴ"", ""probability"": 0.06923076923076923, ""score"": 0.06923076923076923}, {""label"": ""ㅂ"", ""probability"": 0.03076923076923077, ""score"": 0.03076923076923077}, {""label"": ""ㄹ"", ""probability"": 0.028846153846153848, ""score"": 0.028846153846153848}]",2026-06-02 13:04:22,0.15,150,250
s01,2026-06-02,4,all_consonants,Session 4: All consonants,90,26,ㅍ,6/350,voice_ml,19,ㄱ|ㄴ|ㄷ|ㅂ|ㅅ|ㅇ|ㅈ|ㅋ|ㄹ|ㅌ|ㅍ|ㅎ|ㅁ|ㅊ|ㄲ|ㄸ|ㅃ|ㅆ|ㅉ,ㅍ,0,1,2.253085100091994,1.9030851000919937,,5.166267156600952,,,1780373062.5925722,1780373063.2409444,1780373067.7588394,ml_jamo,hangul_learning_results\subject_s01\voice_trials\trial_voice_1780373066195.wav,,,0.32648420007899404,1.29,"[{""label"": ""ㄱ"", ""probability"": 0.07500000000000001, ""score"": 0.07500000000000001}, {""label"": ""ㄷ"", ""probability"": 0.07115384615384615, ""score"": 0.07115384615384615}, {""label"": ""ㅎ"", ""probability"": 0.05961538461538462, ""score"": 0.05961538461538462}, {""label"": ""ㅃ"", ""probability"": 0.05576923076923077, ""score"": 0.05576923076923077}, {""label"": ""ㅍ"", ""probability"": 0.051923076923076926, ""score"": 0.051923076923076926}]",2026-06-02 13:04:27,0.35,150,250
s01,2026-06-02,4,all_consonants,Session 4: All consonants,91,27,ㅆ,4/150.0/150.4/150,voice_ml,19,ㄱ|ㄴ|ㄷ|ㅂ|ㅅ|ㅇ|ㅈ|ㅋ|ㄹ|ㅌ|ㅍ|ㅎ|ㅁ|ㅊ|ㄲ|ㄸ|ㅃ|ㅆ|ㅉ,ㅆ,0,1,1.1432711998932064,0.6928711998932064,,4.207179307937622,,,1780373068.0389369,1780373068.6958892,1780373072.2461162,ml_jamo,hangul_learning_results\subject_s01\voice_trials\trial_voice_1780373070665.wav,,,0.33989729988388717,1.41,"[{""label"": ""ㅆ"", ""probability"": 0.225, ""score"": 0.225}, {""label"": ""ㄲ"", ""probability"": 0.06730769230769232, ""score"": 0.06730769230769232}, {""label"": ""ㅉ"", ""probability"": 0.06153846153846154, ""score"": 0.06153846153846154}, {""label"": ""ㅅ"", ""probability"": 0.051923076923076926, ""score"": 0.051923076923076926}, {""label"": ""ㄱ"", ""probability"": 0.046153846153846156, ""score"": 0.046153846153846156}]",2026-06-02 13:04:32,0.45039999999999997,150,250
s01,2026-06-02,4,all_consonants,Session 4: All consonants,92,28,ㄲ,3/150.0/150.3/150,voice_ml,19,ㄱ|ㄴ|ㄷ|ㅂ|ㅅ|ㅇ|ㅈ|ㅋ|ㄹ|ㅌ|ㅍ|ㅎ|ㅁ|ㅊ|ㄲ|ㄸ|ㅃ|ㅆ|ㅉ,ㄲ,0,1,1.054012899985537,0.6037128999855369,,3.779052257537842,,,1780373072.6398692,1780373073.4415562,1780373076.4189215,ml_jamo,hangul_learning_results\subject_s01\voice_trials\trial_voice_1780373075412.wav,,,0.3384461998939514,1.5,"[{""label"": ""ㅃ"", ""probability"": 0.13461538461538464, ""score"": 0.13461538461538464}, {""label"": ""ㄲ"", ""probability"": 0.1076923076923077, ""score"": 0.1076923076923077}, {""label"": ""ㅆ"", ""probability"": 0.051923076923076926, ""score"": 0.051923076923076926}, {""label"": ""ㄸ"", ""probability"": 0.03653846153846154, ""score"": 0.03653846153846154}, {""label"": ""ㄴ"", ""probability"": 0.028846153846153848, ""score"": 0.028846153846153848}]",2026-06-02 13:04:36,0.45030000000000003,150,250
s01,2026-06-02,4,all_consonants,Session 4: All consonants,93,29,ㅋ,3/350,voice_ml,19,ㄱ|ㄴ|ㄷ|ㅂ|ㅅ|ㅇ|ㅈ|ㅋ|ㄹ|ㅌ|ㅍ|ㅎ|ㅁ|ㅊ|ㄲ|ㄸ|ㅃ|ㅆ|ㅉ,ㅋ,1,1,1.03231309982948,0.6823130998294801,,5.355833292007446,,,1780373076.7621794,1780373077.3978155,1780373082.1180127,ml_jamo,hangul_learning_results\subject_s01\voice_trials\trial_voice_1780373079135.wav,,,0.3578719000797719,1.29,"[{""label"": ""ㅎ"", ""probability"": 0.1596153846153846, ""score"": 0.1596153846153846}, {""label"": ""ㅌ"", ""probability"": 0.06538461538461539, ""score"": 0.06538461538461539}, {""label"": ""ㅈ"", ""probability"": 0.057692307692307696, ""score"": 0.057692307692307696}, {""label"": ""ㅉ"", ""probability"": 0.04807692307692308, ""score"": 0.04807692307692308}, {""label"": ""ㅅ"", ""probability"": 0.04038461538461539, ""score"": 0.04038461538461539}]",2026-06-02 13:04:42,0.35,150,250
s01,2026-06-02,4,all_consonants,Session 4: All consonants,94,30,ㄱ,3/150,voice_ml,19,ㄱ|ㄴ|ㄷ|ㅂ|ㅅ|ㅇ|ㅈ|ㅋ|ㄹ|ㅌ|ㅍ|ㅎ|ㅁ|ㅊ|ㄲ|ㄸ|ㅃ|ㅆ|ㅉ,ㄱ,0,1,0.8149091999512166,0.6649091999512166,,3.2738897800445557,,,1780373083.0921261,1780373083.8207936,1780373086.366016,ml_jamo,hangul_learning_results\subject_s01\voice_trials\trial_voice_1780373085351.wav,,,0.3338432000018656,1.29,"[{""label"": ""ㅌ"", ""probability"": 0.07115384615384615, ""score"": 0.07115384615384615}, {""label"": ""ㄱ"", ""probability"": 0.051923076923076926, ""score"": 0.051923076923076926}, {""label"": ""ㄷ"", ""probability"": 0.04807692307692308, ""score"": 0.04807692307692308}, {""label"": ""ㅍ"", ""probability"": 0.046153846153846156, ""score"": 0.046153846153846156}, {""label"": ""ㅃ"", ""probability"": 0.04423076923076923, ""score"": 0.04423076923076923}]",2026-06-02 13:04:46,0.15,150,250
s01,2026-06-02,4,all_consonants,Session 4: All consonants,95,31,ㅉ,7/150.0/150.7/150,voice_ml,19,ㄱ|ㄴ|ㄷ|ㅂ|ㅅ|ㅇ|ㅈ|ㅋ|ㄹ|ㅌ|ㅍ|ㅎ|ㅁ|ㅊ|ㄲ|ㄸ|ㅃ|ㅆ|ㅉ,ㅉ,0,1,1.0858488001395017,0.6351488001395017,,5.418266296386719,,,1780373086.7471313,1780373087.414839,1780373092.1653976,ml_jamo,hangul_learning_results\subject_s01\voice_trials\trial_voice_1780373089874.wav,,,0.3645262001082301,1.95,"[{""label"": ""ㅃ"", ""probability"": 0.10961538461538461, ""score"": 0.10961538461538461}, {""label"": ""ㄲ"", ""probability"": 0.07884615384615384, ""score"": 0.07884615384615384}, {""label"": ""ㅈ"", ""probability"": 0.05384615384615385, ""score"": 0.05384615384615385}, {""label"": ""ㅆ"", ""probability"": 0.04423076923076923, ""score"": 0.04423076923076923}, {""label"": ""ㅉ"", ""probability"": 0.04230769230769231, ""score"": 0.04230769230769231}]",2026-06-02 13:04:52,0.4507,150,250
s01,2026-06-02,4,all_consonants,Session 4: All consonants,96,32,ㄹ,2/350,voice_ml,19,ㄱ|ㄴ|ㄷ|ㅂ|ㅅ|ㅇ|ㅈ|ㅋ|ㄹ|ㅌ|ㅍ|ㅎ|ㅁ|ㅊ|ㄲ|ㄸ|ㅃ|ㅆ|ㅉ,ㄹ,0,1,0.9374029999598861,0.5874029999598861,,3.520545482635498,,,1780373092.5507648,1780373093.196187,1780373096.0713103,ml_jamo,hangul_learning_results\subject_s01\voice_trials\trial_voice_1780373094977.wav,,,0.3401750000193715,1.44,"[{""label"": ""ㅇ"", ""probability"": 0.08653846153846154, ""score"": 0.08653846153846154}, {""label"": ""ㄴ"", ""probability"": 0.057692307692307696, ""score"": 0.057692307692307696}, {""label"": ""ㄹ"", ""probability"": 0.04807692307692308, ""score"": 0.04807692307692308}, {""label"": ""ㅁ"", ""probability"": 0.038461538461538464, ""score"": 0.038461538461538464}, {""label"": ""ㄷ"", ""probability"": 0.021153846153846155, ""score"": 0.021153846153846155}]",2026-06-02 13:04:56,0.35,150,250
s01,2026-06-02,4,all_consonants,Session 4: All consonants,97,33,ㅁ,9/350,voice_ml,19,ㄱ|ㄴ|ㄷ|ㅂ|ㅅ|ㅇ|ㅈ|ㅋ|ㄹ|ㅌ|ㅍ|ㅎ|ㅁ|ㅊ|ㄲ|ㄸ|ㅃ|ㅆ|ㅉ,ㅁ,0,1,0.9936383999884129,0.6436383999884129,,3.611661911010742,,,1780373096.3813846,1780373097.0253491,1780373099.9930465,ml_jamo,hangul_learning_results\subject_s01\voice_trials\trial_voice_1780373098899.wav,,,0.3846460001077503,1.47,"[{""label"": ""ㅇ"", ""probability"": 0.15, ""score"": 0.15}, {""label"": ""ㅁ"", ""probability"": 0.10961538461538461, ""score"": 0.10961538461538461}, {""label"": ""ㄴ"", ""probability"": 0.09423076923076923, ""score"": 0.09423076923076923}, {""label"": ""ㄹ"", ""probability"": 0.051923076923076926, ""score"": 0.051923076923076926}, {""label"": ""ㅂ"", ""probability"": 0.01730769230769231, ""score"": 0.01730769230769231}]",2026-06-02 13:04:59,0.35,150,250
s01,2026-06-02,4,all_consonants,Session 4: All consonants,98,34,ㅅ,4/150,voice_ml,19,ㄱ|ㄴ|ㄷ|ㅂ|ㅅ|ㅇ|ㅈ|ㅋ|ㄹ|ㅌ|ㅍ|ㅎ|ㅁ|ㅊ|ㄲ|ㄸ|ㅃ|ㅆ|ㅉ,ㅅ,0,1,1.0261319999117404,0.8761319999117404,,3.331287384033203,,,1780373100.34075,1780373101.007722,1780373103.6720374,ml_jamo,hangul_learning_results\subject_s01\voice_trials\trial_voice_1780373102722.wav,,,0.3353256001137197,1.26,"[{""label"": ""ㅎ"", ""probability"": 0.10384615384615385, ""score"": 0.10384615384615385}, {""label"": ""ㅅ"", ""probability"": 0.09807692307692309, ""score"": 0.09807692307692309}, {""label"": ""ㅆ"", ""probability"": 0.06923076923076923, ""score"": 0.06923076923076923}, {""label"": ""ㅉ"", ""probability"": 0.06346153846153846, ""score"": 0.06346153846153846}, {""label"": ""ㄱ"", ""probability"": 0.05961538461538462, ""score"": 0.05961538461538462}]",2026-06-02 13:05:03,0.15,150,250
s01,2026-06-02,4,all_consonants,Session 4: All consonants,99,35,ㅎ,4/350,voice_ml,19,ㄱ|ㄴ|ㄷ|ㅂ|ㅅ|ㅇ|ㅈ|ㅋ|ㄹ|ㅌ|ㅍ|ㅎ|ㅁ|ㅊ|ㄲ|ㄸ|ㅃ|ㅆ|ㅉ,ㅎ,0,1,1.7752909001428634,1.4252909001428633,,4.749113082885742,,,1780373104.0718212,1780373104.7284517,1780373108.8209343,ml_jamo,hangul_learning_results\subject_s01\voice_trials\trial_voice_1780373107299.wav,,,0.33005170011892915,1.32,"[{""label"": ""ㅎ"", ""probability"": 0.16923076923076924, ""score"": 0.16923076923076924}, {""label"": ""ㄷ"", ""probability"": 0.05576923076923077, ""score"": 0.05576923076923077}, {""label"": ""ㅌ"", ""probability"": 0.05, ""score"": 0.05}, {""label"": ""ㅃ"", ""probability"": 0.04423076923076923, ""score"": 0.04423076923076923}, {""label"": ""ㅅ"", ""probability"": 0.038461538461538464, ""score"": 0.038461538461538464}]",2026-06-02 13:05:08,0.35,150,250
s01,2026-06-02,4,all_consonants,Session 4: All consonants,100,36,ㅈ,7/150,voice_ml,19,ㄱ|ㄴ|ㄷ|ㅂ|ㅅ|ㅇ|ㅈ|ㅋ|ㄹ|ㅌ|ㅍ|ㅎ|ㅁ|ㅊ|ㄲ|ㄸ|ㅃ|ㅆ|ㅉ,ㅈ,0,1,1.656995200086385,1.506995200086385,,4.154626846313477,,,1780373109.541052,1780373110.1810577,1780373113.695679,ml_jamo,hangul_learning_results\subject_s01\voice_trials\trial_voice_1780373112511.wav,,,0.3633718001656234,1.26,"[{""label"": ""ㅈ"", ""probability"": 0.21923076923076923, ""score"": 0.21923076923076923}, {""label"": ""ㅊ"", ""probability"": 0.1076923076923077, ""score"": 0.1076923076923077}, {""label"": ""ㅌ"", ""probability"": 0.07884615384615384, ""score"": 0.07884615384615384}, {""label"": ""ㅋ"", ""probability"": 0.057692307692307696, ""score"": 0.057692307692307696}, {""label"": ""ㅉ"", ""probability"": 0.051923076923076926, ""score"": 0.051923076923076926}]",2026-06-02 13:05:13,0.15,150,250
s01,2026-06-02,4,all_consonants,Session 4: All consonants,101,37,ㄴ,2/150,voice_ml,19,ㄱ|ㄴ|ㄷ|ㅂ|ㅅ|ㅇ|ㅈ|ㅋ|ㄹ|ㅌ|ㅍ|ㅎ|ㅁ|ㅊ|ㄲ|ㄸ|ㅃ|ㅆ|ㅉ,ㄴ,0,1,1.3124310998246074,1.1624310998246075,,6.1933581829071045,,,1780373116.4863799,1780373119.4907146,1780373122.679738,ml_jamo,hangul_learning_results\subject_s01\voice_trials\trial_voice_1780373121712.wav,,,0.3373815000522882,1.44,"[{""label"": ""ㄹ"", ""probability"": 0.09423076923076923, ""score"": 0.09423076923076923}, {""label"": ""ㄴ"", ""probability"": 0.06730769230769232, ""score"": 0.06730769230769232}, {""label"": ""ㄷ"", ""probability"": 0.06346153846153846, ""score"": 0.06346153846153846}, {""label"": ""ㅇ"", ""probability"": 0.057692307692307696, ""score"": 0.057692307692307696}, {""label"": ""ㅂ"", ""probability"": 0.05384615384615385, ""score"": 0.05384615384615385}]",2026-06-02 13:05:22,0.15,150,250
s01,2026-06-02,4,all_consonants,Session 4: All consonants,102,38,ㅃ,6/150.0/150.6/150,voice_ml,19,ㄱ|ㄴ|ㄷ|ㅂ|ㅅ|ㅇ|ㅈ|ㅋ|ㄹ|ㅌ|ㅍ|ㅎ|ㅁ|ㅊ|ㄲ|ㄸ|ㅃ|ㅆ|ㅉ,ㅃ,0,1,1.1217235999647528,0.6711235999647528,,3.5796775817871094,,,1780373123.0998068,1780373123.757997,1780373126.6794844,ml_jamo,hangul_learning_results\subject_s01\voice_trials\trial_voice_1780373125711.wav,,,0.3372939000837505,1.41,"[{""label"": ""ㅃ"", ""probability"": 0.11730769230769231, ""score"": 0.11730769230769231}, {""label"": ""ㄲ"", ""probability"": 0.051923076923076926, ""score"": 0.051923076923076926}, {""label"": ""ㅇ"", ""probability"": 0.04423076923076923, ""score"": 0.04423076923076923}, {""label"": ""ㄴ"", ""probability"": 0.04230769230769231, ""score"": 0.04230769230769231}, {""label"": ""ㅁ"", ""probability"": 0.025, ""score"": 0.025}]",2026-06-02 13:05:26,0.4506,150,250
s01,2026-06-02,4,all_consonants,Session 4: All consonants,103,39,ㅊ,7/350,voice_ml,19,ㄱ|ㄴ|ㄷ|ㅂ|ㅅ|ㅇ|ㅈ|ㅋ|ㄹ|ㅌ|ㅍ|ㅎ|ㅁ|ㅊ|ㄲ|ㄸ|ㅃ|ㅆ|ㅉ,ㅊ,0,1,1.375751999905333,1.0257519999053328,,4.749419212341309,,,1780373127.054909,1780373127.695862,1780373131.8043282,ml_jamo,hangul_learning_results\subject_s01\voice_trials\trial_voice_1780373130730.wav,,,0.33413169998675585,2.22,"[{""label"": ""ㅆ"", ""probability"": 0.09807692307692309, ""score"": 0.09807692307692309}, {""label"": ""ㅊ"", ""probability"": 0.07307692307692308, ""score"": 0.07307692307692308}, {""label"": ""ㄲ"", ""probability"": 0.06923076923076923, ""score"": 0.06923076923076923}, {""label"": ""ㅅ"", ""probability"": 0.06730769230769232, ""score"": 0.06730769230769232}, {""label"": ""ㅃ"", ""probability"": 0.06730769230769232, ""score"": 0.06730769230769232}]",2026-06-02 13:05:31,0.35,150,250
s01,2026-06-02,4,all_consonants,Session 4: All consonants,104,40,ㅅ,4/150,voice_ml,19,ㄱ|ㄴ|ㄷ|ㅂ|ㅅ|ㅇ|ㅈ|ㅋ|ㄹ|ㅌ|ㅍ|ㅎ|ㅁ|ㅊ|ㄲ|ㄸ|ㅃ|ㅆ|ㅉ,ㅅ,0,1,0.9967197000514716,0.8467197000514716,,3.2370219230651855,,,1780373132.164836,1780373132.8060455,1780373135.4018579,ml_jamo,hangul_learning_results\subject_s01\voice_trials\trial_voice_1780373134499.wav,,,0.33534019999206066,1.26,"[{""label"": ""ㅆ"", ""probability"": 0.21346153846153848, ""score"": 0.21346153846153848}, {""label"": ""ㅅ"", ""probability"": 0.07115384615384615, ""score"": 0.07115384615384615}, {""label"": ""ㄲ"", ""probability"": 0.05961538461538462, ""score"": 0.05961538461538462}, {""label"": ""ㅉ"", ""probability"": 0.05961538461538462, ""score"": 0.05961538461538462}, {""label"": ""ㅃ"", ""probability"": 0.05, ""score"": 0.05}]",2026-06-02 13:05:35,0.15,150,250
s01,2026-06-02,4,all_consonants,Session 4: All consonants,105,41,ㄱ,3/150,voice_ml,19,ㄱ|ㄴ|ㄷ|ㅂ|ㅅ|ㅇ|ㅈ|ㅋ|ㄹ|ㅌ|ㅍ|ㅎ|ㅁ|ㅊ|ㄲ|ㄸ|ㅃ|ㅆ|ㅉ,ㄱ,0,1,0.9039251999929547,0.7539251999929547,,3.061478614807129,,,1780373135.7668447,1780373136.4197571,1780373138.8283234,ml_jamo,hangul_learning_results\subject_s01\voice_trials\trial_voice_1780373137997.wav,,,0.34257129998877645,1.26,"[{""label"": ""ㄱ"", ""probability"": 0.06153846153846154, ""score"": 0.06153846153846154}, {""label"": ""ㄷ"", ""probability"": 0.06153846153846154, ""score"": 0.06153846153846154}, {""label"": ""ㅃ"", ""probability"": 0.05384615384615385, ""score"": 0.05384615384615385}, {""label"": ""ㄲ"", ""probability"": 0.03076923076923077, ""score"": 0.03076923076923077}, {""label"": ""ㅇ"", ""probability"": 0.028846153846153848, ""score"": 0.028846153846153848}]",2026-06-02 13:05:38,0.15,150,250
s01,2026-06-02,4,all_consonants,Session 4: All consonants,106,42,ㅁ,9/350,voice_ml,19,ㄱ|ㄴ|ㄷ|ㅂ|ㅅ|ㅇ|ㅈ|ㅋ|ㄹ|ㅌ|ㅍ|ㅎ|ㅁ|ㅊ|ㄲ|ㄸ|ㅃ|ㅆ|ㅉ,ㅁ,0,1,1.534872200107202,1.1848722001072018,,4.070175886154175,,,1780373139.1955273,1780373139.8367689,1780373143.2657032,ml_jamo,hangul_learning_results\subject_s01\voice_trials\trial_voice_1780373142294.wav,,,0.34992159996181726,1.5,"[{""label"": ""ㅁ"", ""probability"": 0.12307692307692308, ""score"": 0.12307692307692308}, {""label"": ""ㅇ"", ""probability"": 0.10384615384615385, ""score"": 0.10384615384615385}, {""label"": ""ㄴ"", ""probability"": 0.09807692307692309, ""score"": 0.09807692307692309}, {""label"": ""ㄹ"", ""probability"": 0.03461538461538462, ""score"": 0.03461538461538462}, {""label"": ""ㅃ"", ""probability"": 0.03076923076923077, ""score"": 0.03076923076923077}]",2026-06-02 13:05:43,0.35,150,250
s01,2026-06-02,4,all_consonants,Session 4: All consonants,107,43,ㅇ,9/150,voice_ml,19,ㄱ|ㄴ|ㄷ|ㅂ|ㅅ|ㅇ|ㅈ|ㅋ|ㄹ|ㅌ|ㅍ|ㅎ|ㅁ|ㅊ|ㄲ|ㄸ|ㅃ|ㅆ|ㅉ,ㅇ,0,1,0.9937462999951094,0.8437462999951094,,3.3554797172546387,,,1780373143.6341512,1780373144.2662466,1780373146.989631,ml_jamo,hangul_learning_results\subject_s01\voice_trials\trial_voice_1780373146128.wav,,,0.3336595001164824,1.44,"[{""label"": ""ㅇ"", ""probability"": 0.20769230769230768, ""score"": 0.20769230769230768}, {""label"": ""ㄹ"", ""probability"": 0.046153846153846156, ""score"": 0.046153846153846156}, {""label"": ""ㅁ"", ""probability"": 0.04423076923076923, ""score"": 0.04423076923076923}, {""label"": ""ㅂ"", ""probability"": 0.038461538461538464, ""score"": 0.038461538461538464}, {""label"": ""ㄴ"", ""probability"": 0.03653846153846154, ""score"": 0.03653846153846154}]",2026-06-02 13:05:46,0.15,150,250
s01,2026-06-02,4,all_consonants,Session 4: All consonants,108,44,ㅉ,7/150.0/150.7/150,voice_ml,19,ㄱ|ㄴ|ㄷ|ㅂ|ㅅ|ㅇ|ㅈ|ㅋ|ㄹ|ㅌ|ㅍ|ㅎ|ㅁ|ㅊ|ㄲ|ㄸ|ㅃ|ㅆ|ㅉ,ㅉ,0,1,1.2332158999051899,0.7825158999051899,,3.6503472328186035,,,1780373147.3761756,1780373148.0088768,1780373151.0265229,ml_jamo,hangul_learning_results\subject_s01\voice_trials\trial_voice_1780373150155.wav,,,0.33764289994724095,1.5,"[{""label"": ""ㅉ"", ""probability"": 0.15192307692307694, ""score"": 0.15192307692307694}, {""label"": ""ㅃ"", ""probability"": 0.07884615384615384, ""score"": 0.07884615384615384}, {""label"": ""ㄲ"", ""probability"": 0.07500000000000001, ""score"": 0.07500000000000001}, {""label"": ""ㅆ"", ""probability"": 0.06730769230769232, ""score"": 0.06730769230769232}, {""label"": ""ㅈ"", ""probability"": 0.06153846153846154, ""score"": 0.06153846153846154}]",2026-06-02 13:05:51,0.4507,150,250
s01,2026-06-02,4,all_consonants,Session 4: All consonants,109,45,ㄸ,1/150.0/150.1/150,voice_ml,19,ㄱ|ㄴ|ㄷ|ㅂ|ㅅ|ㅇ|ㅈ|ㅋ|ㄹ|ㅌ|ㅍ|ㅎ|ㅁ|ㅊ|ㄲ|ㄸ|ㅃ|ㅆ|ㅉ,ㄸ,0,1,1.0541725000366569,0.6040725000366569,,4.141507863998413,,,1780373151.649301,1780373152.3117564,1780373155.790809,ml_jamo,hangul_learning_results\subject_s01\voice_trials\trial_voice_1780373154271.wav,,,0.3609367001336068,1.44,"[{""label"": ""ㅃ"", ""probability"": 0.0903846153846154, ""score"": 0.0903846153846154}, {""label"": ""ㄲ"", ""probability"": 0.06346153846153846, ""score"": 0.06346153846153846}, {""label"": ""ㄷ"", ""probability"": 0.051923076923076926, ""score"": 0.051923076923076926}, {""label"": ""ㄸ"", ""probability"": 0.04038461538461539, ""score"": 0.04038461538461539}, {""label"": ""ㄴ"", ""probability"": 0.03076923076923077, ""score"": 0.03076923076923077}]",2026-06-02 13:05:55,0.4501,150,250
s01,2026-06-02,4,all_consonants,Session 4: All consonants,110,46,ㅍ,6/350,voice_ml,19,ㄱ|ㄴ|ㄷ|ㅂ|ㅅ|ㅇ|ㅈ|ㅋ|ㄹ|ㅌ|ㅍ|ㅎ|ㅁ|ㅊ|ㄲ|ㄸ|ㅃ|ㅆ|ㅉ,ㅍ,1,1,1.8640548998955637,1.5140548998955636,,6.6876678466796875,,,1780373156.117716,1780373156.7733972,1780373162.805384,ml_jamo,hangul_learning_results\subject_s01\voice_trials\trial_voice_1780373159974.wav,,,0.3323464000131935,1.92,"[{""label"": ""ㄷ"", ""probability"": 0.05961538461538462, ""score"": 0.05961538461538462}, {""label"": ""ㄱ"", ""probability"": 0.05576923076923077, ""score"": 0.05576923076923077}, {""label"": ""ㄲ"", ""probability"": 0.046153846153846156, ""score"": 0.046153846153846156}, {""label"": ""ㅃ"", ""probability"": 0.04423076923076923, ""score"": 0.04423076923076923}, {""label"": ""ㅌ"", ""probability"": 0.038461538461538464, ""score"": 0.038461538461538464}]",2026-06-02 13:06:02,0.35,150,250
s01,2026-06-02,4,all_consonants,Session 4: All consonants,111,47,ㄲ,3/150.0/150.3/150,voice_ml,19,ㄱ|ㄴ|ㄷ|ㅂ|ㅅ|ㅇ|ㅈ|ㅋ|ㄹ|ㅌ|ㅍ|ㅎ|ㅁ|ㅊ|ㄲ|ㄸ|ㅃ|ㅆ|ㅉ,ㄲ,0,1,0.8825141999404877,0.4322141999404877,,3.661257266998291,,,1780373164.629835,1780373165.539688,1780373168.2910922,ml_jamo,hangul_learning_results\subject_s01\voice_trials\trial_voice_1780373167383.wav,,,0.33967249980196357,1.5,"[{""label"": ""ㄲ"", ""probability"": 0.11346153846153846, ""score"": 0.11346153846153846}, {""label"": ""ㅃ"", ""probability"": 0.1076923076923077, ""score"": 0.1076923076923077}, {""label"": ""ㄸ"", ""probability"": 0.04038461538461539, ""score"": 0.04038461538461539}, {""label"": ""ㅆ"", ""probability"": 0.038461538461538464, ""score"": 0.038461538461538464}, {""label"": ""ㄱ"", ""probability"": 0.03461538461538462, ""score"": 0.03461538461538462}]",2026-06-02 13:06:08,0.45030000000000003,150,250
s01,2026-06-02,4,all_consonants,Session 4: All consonants,112,48,ㅆ,4/150.0/150.4/150,voice_ml,19,ㄱ|ㄴ|ㄷ|ㅂ|ㅅ|ㅇ|ㅈ|ㅋ|ㄹ|ㅌ|ㅍ|ㅎ|ㅁ|ㅊ|ㄲ|ㄸ|ㅃ|ㅆ|ㅉ,ㅆ,0,1,1.4542595997918397,1.0038595997918398,,3.557803153991699,,,1780373168.6707761,1780373169.3102868,1780373172.2285793,ml_jamo,hangul_learning_results\subject_s01\voice_trials\trial_voice_1780373171385.wav,,,0.3288930000271648,1.2,"[{""label"": ""ㅆ"", ""probability"": 0.11538461538461539, ""score"": 0.11538461538461539}, {""label"": ""ㄲ"", ""probability"": 0.0903846153846154, ""score"": 0.0903846153846154}, {""label"": ""ㅃ"", ""probability"": 0.07307692307692308, ""score"": 0.07307692307692308}, {""label"": ""ㅉ"", ""probability"": 0.06923076923076923, ""score"": 0.06923076923076923}, {""label"": ""ㄸ"", ""probability"": 0.04423076923076923, ""score"": 0.04423076923076923}]",2026-06-02 13:06:12,0.45039999999999997,150,250
s01,2026-06-02,4,all_consonants,Session 4: All consonants,113,49,ㅂ,6/150,voice_ml,19,ㄱ|ㄴ|ㄷ|ㅂ|ㅅ|ㅇ|ㅈ|ㅋ|ㄹ|ㅌ|ㅍ|ㅎ|ㅁ|ㅊ|ㄲ|ㄸ|ㅃ|ㅆ|ㅉ,ㅂ,0,1,1.3272179001942277,1.1772179001942278,,4.109183311462402,,,1780373172.6966553,1780373173.367128,1780373176.8058386,ml_jamo,hangul_learning_results\subject_s01\voice_trials\trial_voice_1780373175388.wav,,,0.32785860006697476,1.23,"[{""label"": ""ㅇ"", ""probability"": 0.08076923076923077, ""score"": 0.08076923076923077}, {""label"": ""ㄴ"", ""probability"": 0.05961538461538462, ""score"": 0.05961538461538462}, {""label"": ""ㄷ"", ""probability"": 0.05384615384615385, ""score"": 0.05384615384615385}, {""label"": ""ㅂ"", ""probability"": 0.05, ""score"": 0.05}, {""label"": ""ㄹ"", ""probability"": 0.03076923076923077, ""score"": 0.03076923076923077}]",2026-06-02 13:06:16,0.15,150,250
s01,2026-06-02,4,all_consonants,Session 4: All consonants,114,50,ㄹ,2/350,voice_ml,19,ㄱ|ㄴ|ㄷ|ㅂ|ㅅ|ㅇ|ㅈ|ㅋ|ㄹ|ㅌ|ㅍ|ㅎ|ㅁ|ㅊ|ㄲ|ㄸ|ㅃ|ㅆ|ㅉ,ㄹ,0,1,0.935863499995321,0.5858634999953211,,3.3318097591400146,,,1780373177.148875,1780373177.8041892,1780373180.4806848,ml_jamo,hangul_learning_results\subject_s01\voice_trials\trial_voice_1780373179618.wav,,,0.3433170998468995,1.41,"[{""label"": ""ㅇ"", ""probability"": 0.06346153846153846, ""score"": 0.06346153846153846}, {""label"": ""ㄹ"", ""probability"": 0.05384615384615385, ""score"": 0.05384615384615385}, {""label"": ""ㄴ"", ""probability"": 0.04807692307692308, ""score"": 0.04807692307692308}, {""label"": ""ㄷ"", ""probability"": 0.032692307692307694, ""score"": 0.032692307692307694}, {""label"": ""ㅁ"", ""probability"": 0.025, ""score"": 0.025}]",2026-06-02 13:06:20,0.35,150,250
s01,2026-06-02,4,all_consonants,Session 4: All consonants,115,51,ㅎ,4/350,voice_ml,19,ㄱ|ㄴ|ㄷ|ㅂ|ㅅ|ㅇ|ㅈ|ㅋ|ㄹ|ㅌ|ㅍ|ㅎ|ㅁ|ㅊ|ㄲ|ㄸ|ㅃ|ㅆ|ㅉ,ㅎ,0,1,2.198149099946022,1.848149099946022,,5.060624361038208,,,1780373180.8531787,1780373181.4828777,1780373185.913803,ml_jamo,hangul_learning_results\subject_s01\voice_trials\trial_voice_1780373184649.wav,,,0.34361799992620945,1.5,"[{""label"": ""ㅃ"", ""probability"": 0.07692307692307693, ""score"": 0.07692307692307693}, {""label"": ""ㄷ"", ""probability"": 0.06346153846153846, ""score"": 0.06346153846153846}, {""label"": ""ㅎ"", ""probability"": 0.05961538461538462, ""score"": 0.05961538461538462}, {""label"": ""ㄱ"", ""probability"": 0.046153846153846156, ""score"": 0.046153846153846156}, {""label"": ""ㄲ"", ""probability"": 0.04423076923076923, ""score"": 0.04423076923076923}]",2026-06-02 13:06:25,0.35,150,250
s01,2026-06-02,4,all_consonants,Session 4: All consonants,116,52,ㄴ,2/150,voice_ml,19,ㄱ|ㄴ|ㄷ|ㅂ|ㅅ|ㅇ|ㅈ|ㅋ|ㄹ|ㅌ|ㅍ|ㅎ|ㅁ|ㅊ|ㄲ|ㄸ|ㅃ|ㅆ|ㅉ,ㄴ,0,1,1.0241091998759657,0.8741091998759657,,3.578660726547241,,,1780373186.273054,1780373186.9141273,1780373189.8517146,ml_jamo,hangul_learning_results\subject_s01\voice_trials\trial_voice_1780373188852.wav,,,0.3628278002142906,1.5,"[{""label"": ""ㅇ"", ""probability"": 0.14423076923076922, ""score"": 0.14423076923076922}, {""label"": ""ㄴ"", ""probability"": 0.09615384615384616, ""score"": 0.09615384615384616}, {""label"": ""ㅁ"", ""probability"": 0.0826923076923077, ""score"": 0.0826923076923077}, {""label"": ""ㄹ"", ""probability"": 0.06538461538461539, ""score"": 0.06538461538461539}, {""label"": ""ㅂ"", ""probability"": 0.019230769230769232, ""score"": 0.019230769230769232}]",2026-06-02 13:06:29,0.15,150,250
s01,2026-06-02,4,all_consonants,Session 4: All consonants,117,53,ㅃ,6/150.0/150.6/150,voice_ml,19,ㄱ|ㄴ|ㄷ|ㅂ|ㅅ|ㅇ|ㅈ|ㅋ|ㄹ|ㅌ|ㅍ|ㅎ|ㅁ|ㅊ|ㄲ|ㄸ|ㅃ|ㅆ|ㅉ,ㅃ,0,1,2.4038233999162912,1.9532233999162911,,5.233152866363525,,,1780373190.2750916,1780373190.9291847,1780373195.5082445,ml_jamo,hangul_learning_results\subject_s01\voice_trials\trial_voice_1780373194293.wav,,,0.32762850006110966,1.47,"[{""label"": ""ㅃ"", ""probability"": 0.12115384615384615, ""score"": 0.12115384615384615}, {""label"": ""ㄲ"", ""probability"": 0.05384615384615385, ""score"": 0.05384615384615385}, {""label"": ""ㅇ"", ""probability"": 0.03461538461538462, ""score"": 0.03461538461538462}, {""label"": ""ㄴ"", ""probability"": 0.032692307692307694, ""score"": 0.032692307692307694}, {""label"": ""ㄸ"", ""probability"": 0.032692307692307694, ""score"": 0.032692307692307694}]",2026-06-02 13:06:35,0.4506,150,250
s01,2026-06-02,4,all_consonants,Session 4: All consonants,118,54,ㅌ,1/350,voice_ml,19,ㄱ|ㄴ|ㄷ|ㅂ|ㅅ|ㅇ|ㅈ|ㅋ|ㄹ|ㅌ|ㅍ|ㅎ|ㅁ|ㅊ|ㄲ|ㄸ|ㅃ|ㅆ|ㅉ,ㅌ,1,1,1.3954235999844968,1.0454235999844967,,4.695869207382202,,,1780373195.9297936,1780373196.5756886,1780373200.6256628,ml_jamo,hangul_learning_results\subject_s01\voice_trials\trial_voice_1780373198627.wav,,,0.3612369999755174,1.23,"[{""label"": ""ㄴ"", ""probability"": 0.06346153846153846, ""score"": 0.06346153846153846}, {""label"": ""ㄷ"", ""probability"": 0.05961538461538462, ""score"": 0.05961538461538462}, {""label"": ""ㅁ"", ""probability"": 0.051923076923076926, ""score"": 0.051923076923076926}, {""label"": ""ㅃ"", ""probability"": 0.046153846153846156, ""score"": 0.046153846153846156}, {""label"": ""ㅉ"", ""probability"": 0.04423076923076923, ""score"": 0.04423076923076923}]",2026-06-02 13:06:40,0.35,150,250
s01,2026-06-02,5,basic_vowels,Session 5: Basic vowels,119,1,ㅗ,"5/150.5/d,2/i/100.2/150",voice_ml,6,ㅣ|ㅡ|ㅏ|ㅓ|ㅗ|ㅜ,ㅗ,0,1,0.9192278000991791,0.5185278000991791,,3.9688613414764404,,,1780373203.3043826,1780373204.6832511,1780373207.273244,ml_jamo,hangul_learning_results\subject_s01\voice_trials\trial_voice_1780373206366.wav,,,0.3424850997980684,1.32,"[{""label"": ""ㅗ"", ""probability"": 0.09423076923076923, ""score"": 0.09423076923076923}, {""label"": ""ㅜ"", ""probability"": 0.08846153846153847, ""score"": 0.08846153846153847}, {""label"": ""ㅓ"", ""probability"": 0.06538461538461539, ""score"": 0.06538461538461539}, {""label"": ""ㅏ"", ""probability"": 0.051923076923076926, ""score"": 0.051923076923076926}, {""label"": ""ㅡ"", ""probability"": 0.032692307692307694, ""score"": 0.032692307692307694}]",2026-06-02 13:06:47,0.4007,150,250
